sep=;
ACCELEROMETER X (m/s²);ACCELEROMETER Y (m/s²);ACCELEROMETER Z (m/s²);GRAVITY X (m/s²);GRAVITY Y (m/s²);GRAVITY Z (m/s²);LINEAR ACCELERATION X (m/s²);LINEAR ACCELERATION Y (m/s²);LINEAR ACCELERATION Z (m/s²);GYROSCOPE X (rad/s);GYROSCOPE Y (rad/s);GYROSCOPE Z (rad/s);LIGHT (lux);MAGNETIC FIELD X (μT);MAGNETIC FIELD Y (μT);MAGNETIC FIELD Z (μT);ORIENTATION Z (azimuth °);ORIENTATION X (pitch °);ORIENTATION Y (roll °);PROXIMITY (m);ATMOSPHERIC PRESSURE (hPa);SOUND LEVEL (dB);LOCATION Latitude : ;LOCATION Longitude : ;LOCATION Altitude ( m);LOCATION Altitude-google ( m);LOCATION Altitude-atmospheric pressure ( m);LOCATION Speed ( m/s);LOCATION Accuracy ( m);LOCATION ORIENTATION (°);Satellites in range;Time since start in ms ;YYYY-MO-DD HH-MI-SS_SSS
-2.1223;2.1931;10.7083;-1.5369;3.1082;9.1732;3.1144;-0.3826;-0.9816;-1.5947;0.7256;-2.4254;9355.0;28.39;-39.61;-21.27;228.88;-29.29;-2.51;5.0;1009.86;45.736;37.510677;127.06058;47.0;NaN;;;22.108;;0 / 0;59;2020-09-25 14:50:58:031
1.8147;5.8713;6.6635;-1.7698;2.4987;9.3164;-2.0413;-2.3732;-0.9605;0.487;-1.0901;0.2707;22657.0;36.49;-21.34;-26.59;248.68;-14.76;10.76;5.0;1009.85;52.669;37.510677;127.06058;47.0;NaN;;;22.108;;0 / 27;559;2020-09-25 14:50:58:531
4.2461;1.2636;5.34;3.9389;-0.5845;8.9618;0.1594;-3.2653;-1.5559;0.8597;-2.3961;1.5541;65535.0;8.18;-6.43;-49.62;241.22;5.73;-13.41;5.0;1009.85;54.439;37.510677;127.06058;47.0;NaN;;;22.108;;0 / 27;1060;2020-09-25 14:50:59:032
8.0321;4.8005;3.7422;8.9033;2.9737;2.8389;-0.8014;-4.2519;3.6065;-0.1189;0.7129;1.6614;43541.0;-15.69;-16.37;-45.99;260.69;-17.65;-72.31;5.0;1009.85;56.519;37.510677;127.06058;47.0;NaN;;;22.108;;0 / 27;1559;2020-09-25 14:50:59:531
4.3275;1.3307;7.5043;4.0862;1.1144;8.8449;-0.0073;-0.1118;-0.318;-0.0781;0.474;-0.163;33228.0;17.71;-16.49;-42.99;250.46;-5.12;-32.27;5.0;1009.85;51.303;37.510677;127.06058;47.0;NaN;;;22.108;;0 / 27;2059;2020-09-25 14:51:00:031
8.219;-2.4506;4.6142;9.1486;-0.1486;3.5288;-0.225;-1.6441;2.5342;-1.3565;-2.4818;0.0469;52036.0;-16.63;5.57;-38.54;297.57;-5.28;-48.91;5.0;1009.84;48.309;37.510677;127.06058;47.0;NaN;;;22.108;;0 / 27;2559;2020-09-25 14:51:00:531
10.7845;-3.3884;0.9311;7.5686;-5.1558;3.5078;1.6485;-0.232;0.5868;-0.6952;-1.3132;-2.7675;67168.0;-12.75;14.81;-37.0;280.25;22.79;-75.28;5.0;1009.84;47.507;37.510677;127.06058;47.0;NaN;;;22.108;;0 / 27;3059;2020-09-25 14:51:01:031
5.9564;10.2311;-3.134;9.4328;2.2877;-1.3999;-0.1932;-0.3132;-2.3004;-1.1041;0.5;0.4721;26463.0;-34.28;-7.85;-29.21;264.19;-8.49;-93.09;5.0;1009.84;62.759;37.510677;127.06058;47.0;NaN;;;22.108;;0 / 27;3559;2020-09-25 14:51:01:531
11.0456;-3.8196;0.8401;8.91;-3.9621;1.0413;-0.2047;0.4154;0.0906;-0.3665;-0.7366;-1.1053;49571.0;-15.13;23.92;-26.2;289.47;35.44;-77.79;5.0;1009.84;55.656;37.510677;127.06058;47.0;NaN;;;22.108;;0 / 27;4059;2020-09-25 14:51:02:031
11.9643;-3.2339;0.9503;9.6396;0.88;-1.5727;0.1185;-0.1002;-1.726;0.718;-0.6005;-1.3555;29072.0;-32.82;1.68;-19.63;274.65;0.18;-96.09;5.0;1009.85;61.342;37.510677;127.06058;47.0;NaN;;;22.108;;0 / 27;4559;2020-09-25 14:51:02:531
10.333;-5.7168;-3.8394;8.6034;0.7866;-4.6404;1.1568;-3.9735;-0.0075;4.2131;2.1112;0.1257;173.0;-26.89;9.97;-12.63;295.13;-4.6;-118.34;0.0;1009.9;64.308;37.510677;127.06058;47.0;NaN;;;22.108;;0 / 27;5059;2020-09-25 14:51:03:031
9.4155;4.7287;-0.0282;7.2865;6.3506;-1.6576;9.3885;-3.7213;3.5638;5.8947;11.9171;-2.5749;111.0;21.38;-21.46;24.56;241.39;-25.4;-104.03;0.0;1009.95;66.092;37.510677;127.06058;47.0;NaN;;;22.108;;0 / 27;5559;2020-09-25 14:51:03:531
4.9467;6.269;-0.1336;3.7715;8.7897;2.1651;2.2087;-1.6891;-1.507;-3.9812;-6.8433;-0.6774;13.0;-11.93;-6.58;30.23;94.35;-55.83;-71.36;0.0;1009.9;64.45;37.510677;127.06058;47.0;NaN;;;22.108;;0 / 27;6059;2020-09-25 14:51:04:031
4.6054;8.1518;2.6463;5.0014;8.4354;0.0195;-0.24;0.2495;0.3691;0.8513;1.8595;0.2884;2.0;-8.21;-4.77;35.98;102.74;-53.62;-67.31;0.0;1009.89;57.223;37.510677;127.06058;47.0;NaN;;;22.108;;0 / 27;6559;2020-09-25 14:51:04:531
4.6844;8.4129;8.6087;4.8102;8.1926;2.4318;1.3665;0.2021;-1.5011;-1.6655;-4.7336;-0.795;47.0;-6.02;-12.01;36.9;114.22;-56.66;-63.18;0.0;1009.89;53.128;37.510677;127.06058;47.0;NaN;;;22.108;;0 / 27;7059;2020-09-25 14:51:05:031
3.846;8.6357;1.4019;4.6865;8.6003;0.4913;-0.2981;0.1032;0.6894;-0.0811;-0.3393;0.7017;22.0;2.37;-8.64;40.24;109.15;-66.83;-72.95;0.0;1009.88;50.123;37.510677;127.06058;47.0;NaN;;;22.108;;0 / 27;7559;2020-09-25 14:51:05:531
3.1322;8.5902;0.3694;3.4826;9.1559;0.4589;0.4759;-0.4518;-0.3634;-0.5555;-0.8827;0.5486;18.0;10.76;-7.76;44.57;113.23;-69.01;-82.49;0.0;1009.87;47.537;37.510677;127.06058;47.0;NaN;;;22.108;;0 / 27;8059;2020-09-25 14:51:06:031
3.7334;8.6285;1.645;4.1083;8.7796;1.487;-0.0624;-0.1724;-0.1432;0.3194;-0.0612;0.0712;26.0;10.05;-15.58;36.94;132.1;-61.82;-68.4;0.0;1009.85;45.505;37.510677;127.06058;47.0;NaN;;;22.108;;0 / 27;8559;2020-09-25 14:51:06:531
5.2498;8.5794;1.0713;5.5521;7.992;1.2132;-0.8679;0.7889;-0.1167;-1.3331;-0.265;-1.4892;143.0;17.54;-19.78;32.81;138.11;-54.58;-77.67;0.0;1009.84;44.732;37.510677;127.06058;47.0;NaN;;;22.108;;0 / 27;9060;2020-09-25 14:51:07:032
4.1934;8.8441;1.0234;3.8914;8.9174;1.2277;-0.038;-0.218;-0.2889;-0.0589;-0.2703;0.7638;94.0;24.28;-18.5;31.16;159.65;-69.67;-60.3;0.0;1009.82;49.079;37.510677;127.06058;47.0;NaN;;;22.108;;0 / 27;9559;2020-09-25 14:51:07:531
4.4437;8.6058;1.6055;4.2897;8.7615;1.0026;0.2877;0.0993;-0.1097;-0.7559;-1.5473;-1.192;94.0;23.55;-17.76;35.97;139.35;-59.42;-78.57;0.0;1009.83;45.723;37.510677;127.06058;47.0;NaN;;;22.108;;0 / 27;10059;2020-09-25 14:51:08:031
4.5587;8.8776;1.3587;4.5204;8.5622;1.5569;-0.5481;0.447;-0.2413;0.0024;-0.2864;0.9463;217.0;21.44;-24.71;23.85;156.44;-60.82;-71.0;0.0;1009.83;50.593;37.510677;127.06058;47.0;NaN;;;22.108;;0 / 44;10560;2020-09-25 14:51:08:532
4.7096;9.0058;2.9206;4.0992;8.6812;2.0008;-0.3921;-0.0971;-0.2933;-0.1128;0.1858;0.275;378.0;27.59;-19.45;18.81;172.9;-62.28;-63.98;0.0;1009.82;46.116;37.510677;127.06058;47.0;NaN;;;22.108;;0 / 44;11059;2020-09-25 14:51:09:031
3.1549;11.5917;-0.699;3.7682;8.9756;1.187;0.3561;-0.7165;1.648;-1.3798;1.4688;1.0458;128.0;19.88;-20.02;26.19;162.35;-62.92;-67.15;0.0;1009.83;47.807;37.510468;127.06049;42.37;NaN;;0.44;10.349121;321.5;0 / 44;11559;2020-09-25 14:51:09:531
4.3455;11.5426;-0.3552;3.5634;9.0827;0.9885;-0.1113;0.0534;-0.3997;0.3553;-1.0976;-0.4532;112.0;23.29;-13.7;36.55;140.21;-63.76;-74.07;0.0;1009.85;53.189;37.510468;127.06049;42.37;NaN;;0.44;10.349121;321.5;0 / 44;12059;2020-09-25 14:51:10:031
3.8748;10.3245;0.7575;4.9066;8.3271;1.6599;-0.3791;-0.6269;3.0615;0.9158;0.4194;-0.2295;311.0;27.22;-20.44;21.63;167.3;-57.88;-65.51;0.0;1009.85;48.043;37.510487;127.06047;48.71;NaN;;0.54;8.092587;224.9;18 / 44;12559;2020-09-25 14:51:10:531
4.5203;7.9925;4.165;4.7541;8.1714;2.6073;-1.7447;0.3993;-1.0696;-1.5102;-0.1184;0.4115;441.0;26.92;-20.74;8.91;168.16;-66.67;-77.74;0.0;1009.87;49.16;37.510487;127.06047;48.71;NaN;;0.54;8.092587;224.9;18 / 44;13060;2020-09-25 14:51:11:032
5.6726;9.8754;-1.6811;3.8384;8.961;-1.0666;-2.4855;-2.2495;1.342;0.0861;0.7353;0.5366;44.0;20.94;-10.29;41.91;127.54;-58.82;-80.13;0.0;1009.86;63.174;37.510555;127.06042;44.29;NaN;;0.87;8.73271;239.4;18 / 44;13559;2020-09-25 14:51:11:531
5.1635;8.2788;1.8031;5.3745;7.8326;2.4363;1.5849;0.8825;-2.5853;1.4299;1.9057;0.3044;585.0;21.45;-24.25;6.63;184.1;-53.01;-65.61;0.0;1009.86;53.588;37.510555;127.06042;44.29;NaN;;0.87;8.73271;239.4;18 / 44;14059;2020-09-25 14:51:12:031
5.7229;8.1434;0.0221;4.2736;8.6007;1.9837;-0.3235;0.5537;-0.1715;-2.7752;-1.2883;1.5673;563.0;26.19;-20.28;16.65;142.47;-71.36;-100.22;0.0;1009.85;62.197;37.51057;127.060394;43.37;NaN;;1.48;9.717594;286.0;18 / 44;14560;2020-09-25 14:51:12:532
4.0161;8.9447;1.1695;4.5916;8.5578;-1.3608;1.0564;-0.8504;1.9068;3.7671;0.9645;-2.1034;317.0;29.13;-19.84;21.04;152.52;-53.72;-85.96;0.0;1009.86;58.039;37.51057;127.060394;43.37;NaN;;1.48;9.717594;286.0;18 / 44;15059;2020-09-25 14:51:13:031
2.4159;11.0971;0.9707;5.2088;8.3027;0.3223;3.7411;1.1243;2.5043;-0.4587;-1.6454;1.5198;971.0;17.32;-27.85;-13.22;206.13;-57.85;-86.46;0.0;1009.86;59.005;37.510593;127.06036;41.05;NaN;;1.44;9.056394;247.5;20 / 44;15559;2020-09-25 14:51:13:531
5.7792;8.2919;1.3923;2.4212;9.3838;-1.5008;-0.7087;-0.9388;-0.256;-0.6112;0.3722;-1.1538;233.0;48.18;-2.62;25.05;120.4;-73.11;-121.79;0.0;1009.85;60.164;37.510593;127.06036;41.05;NaN;;1.44;9.056394;247.5;20 / 44;16059;2020-09-25 14:51:14:031
7.2955;8.5423;1.7971;6.5435;7.2868;0.5053;-2.0666;3.0016;1.4259;-0.5084;-0.606;0.8807;451.0;21.5;-17.52;-13.45;209.18;-56.16;-85.02;0.0;1009.85;46.45;37.510574;127.06036;42.04;NaN;;1.67;9.447628;205.3;23 / 44;16559;2020-09-25 14:51:14:531
2.8806;16.209;-0.5013;4.4877;8.7141;-0.3074;-2.2766;-3.2735;-1.1302;-0.8078;-1.8128;1.117;391.0;28.64;-9.96;20.6;136.38;-60.63;-99.56;0.0;1009.83;54.889;37.510574;127.06036;42.04;NaN;;1.67;9.447628;205.3;23 / 44;17059;2020-09-25 14:51:15:031
3.9526;7.3841;0.4125;4.6611;8.6004;-0.6914;0.3429;-0.8756;0.2837;-0.2896;-0.1454;-0.7166;439.0;32.45;-9.4;26.54;127.89;-60.64;-103.25;0.0;1009.83;61.294;37.51056;127.06036;45.07;NaN;;1.23;9.112774;223.7;25 / 44;17559;2020-09-25 14:51:15:531
7.6009;6.9565;-0.1253;5.5091;7.7983;2.2376;-0.5914;-0.2598;0.0937;0.93;1.0804;-0.8311;1221.0;24.59;-16.32;-5.41;207.8;-52.67;-67.89;0.0;1009.84;57.415;37.51056;127.06036;45.07;NaN;;1.23;9.112774;223.7;25 / 44;18059;2020-09-25 14:51:16:031
4.4329;11.2995;2.1121;3.4934;9.0976;1.0954;0.5861;-1.11;-0.4631;-1.1461;-1.0236;0.4325;608.0;29.83;-16.02;-3.89;199.12;-70.83;-76.19;0.0;1009.83;49.25;37.510555;127.06035;45.32;NaN;;0.92;9.367529;233.5;25 / 44;18559;2020-09-25 14:51:16:531
4.0197;9.3316;1.2953;5.0397;8.3425;1.0841;-0.6479;-0.4021;0.6822;0.9461;0.9348;-1.0707;646.0;23.46;-12.03;-8.18;207.8;-58.29;-77.86;0.0;1009.83;54.475;37.510555;127.06035;45.32;NaN;;0.92;9.367529;233.5;25 / 44;19059;2020-09-25 14:51:17:031
4.8653;6.3444;2.0846;5.1072;8.2721;1.2883;-0.1796;2.0489;0.2162;0.7029;-1.0195;0.2767;298.0;16.31;-14.27;-12.67;222.66;-57.51;-75.84;0.0;1009.82;54.921;37.51055;127.06033;46.28;NaN;;1.92;8.676574;240.8;25 / 44;19560;2020-09-25 14:51:17:532
3.8328;5.4749;0.5024;3.9477;8.7179;2.1411;1.6763;0.0218;-0.1086;-0.715;-1.8264;0.455;227.0;10.31;-3.45;-19.43;258.45;-71.03;-71.74;0.0;1009.79;49.401;37.51055;127.06033;46.28;NaN;;1.92;8.676574;240.8;25 / 44;20059;2020-09-25 14:51:18:031
8.3747;10.6599;2.1241;6.4887;7.1762;-1.6027;0.5361;-0.8035;4.2541;4.2172;3.5112;-3.7592;705.0;-6.44;-10.43;-15.93;251.66;-34.95;-94.17;0.0;1009.78;49.402;37.51055;127.06031;46.59;NaN;;1.3;8.421719;240.6;25 / 44;20560;2020-09-25 14:51:18:532
-1.018;8.032;-5.3666;2.1166;9.564;-0.4683;-1.4209;1.9425;-1.9736;0.1826;-0.764;0.886;4.0;28.71;-6.86;19.3;116.64;-74.27;-122.13;0.0;1009.75;60.759;37.51055;127.06031;46.59;NaN;;1.3;8.421719;240.6;25 / 44;21059;2020-09-25 14:51:19:031
2.3189;3.4423;-2.7555;5.9105;7.8165;0.3725;2.4439;0.385;-2.1127;0.8528;-2.8662;-2.3822;677.0;33.13;-24.97;12.19;166.72;-52.85;-86.39;0.0;1009.76;53.47;37.51055;127.06029;47.03;NaN;;2.09;8.522128;263.9;25 / 44;21560;2020-09-25 14:51:19:532
2.9405;12.6326;2.178;5.6058;7.9774;1.0513;4.7589;1.2532;2.1535;-1.4296;-3.1149;1.6343;391.0;8.19;-18.9;-15.93;214.61;-79.57;-112.97;0.0;1009.77;55.208;37.51055;127.06029;47.03;NaN;;2.09;8.522128;263.9;25 / 44;22059;2020-09-25 14:51:20:031
4.9839;8.1015;-0.1863;4.3063;8.6935;-1.4313;-0.6569;-0.3255;1.1328;1.1136;2.0999;-0.4686;379.0;25.09;-21.01;-1.32;181.3;-51.88;-90.6;0.0;1009.78;58.115;37.51055;127.060265;47.01;NaN;;1.61;8.193536;249.4;26 / 44;22559;2020-09-25 14:51:20:531
4.6018;11.0611;0.5;5.1977;8.2653;-0.916;-0.2205;0.0384;3.1617;1.3409;4.2647;-0.4161;1303.0;-1.28;-7.35;-19.8;253.56;-57.44;-99.99;0.0;1009.79;59.491;37.51055;127.060265;47.01;NaN;;1.61;8.193536;249.4;26 / 44;23059;2020-09-25 14:51:21:031
3.7634;4.7131;-1.5649;4.0937;8.8746;0.8084;0.3108;-0.389;1.0751;0.2592;-0.141;0.1249;301.0;23.24;-7.65;-12.79;218.62;-64.82;-78.83;0.0;1009.78;60.122;37.51054;127.06024;47.44;NaN;;2.11;7.897289;237.3;28 / 44;23559;2020-09-25 14:51:21:531
4.0928;9.6406;-1.0691;3.9518;8.9682;0.353;0.4927;-0.199;-0.9197;-0.6226;-0.7969;-0.7222;303.0;23.43;-9.68;-9.23;203.58;-59.22;-85.96;0.0;1009.79;48.54;37.51054;127.06024;47.44;NaN;;2.11;7.897289;237.3;28 / 44;24059;2020-09-25 14:51:22:031
4.0808;6.0785;0.7012;4.598;8.6167;0.8836;-0.3908;1.6422;-0.1774;0.4964;-0.3784;-0.0969;269.0;19.24;-12.08;-7.13;214.61;-57.41;-69.06;0.0;1009.78;53.048;37.510532;127.06022;47.39;NaN;;2.39;8.068527;245.0;27 / 44;24559;2020-09-25 14:51:22:531
7.8261;10.5856;1.7264;4.0138;8.9197;0.7069;-1.0745;-0.5833;0.3846;0.1818;0.5717;-0.2631;463.0;22.54;-13.57;-10.41;210.81;-65.64;-78.05;0.0;1009.78;52.671;37.510532;127.06022;47.39;NaN;;2.39;8.068527;245.0;27 / 44;25059;2020-09-25 14:51:23:031
7.0703;6.9553;-2.3327;5.9168;7.8163;0.2588;1.0012;0.6419;2.2737;1.8073;2.2366;-1.0997;778.0;12.39;-16.7;-14.09;225.39;-53.34;-74.63;0.0;1009.79;53.651;37.510525;127.06019;47.77;NaN;;1.45;9.13628;240.7;29 / 44;25560;2020-09-25 14:51:23:532
3.8616;5.591;0.3239;4.6864;8.4584;1.6323;-0.7373;-0.2927;0.5666;-0.6866;-1.8618;1.0672;423.0;10.89;-16.49;-16.88;238.12;-59.6;-70.8;0.0;1009.78;50.324;37.510525;127.06019;47.77;NaN;;1.45;9.13628;240.7;29 / 44;26059;2020-09-25 14:51:24:031
4.0329;6.4762;0.1586;4.3833;8.7433;0.7149;-0.8621;-0.1;-0.2278;-1.4471;-0.8973;-0.4552;810.0;22.29;-14.07;-7.04;202.94;-63.07;-80.74;0.0;1009.79;49.658;37.51052;127.06017;48.28;NaN;;1.41;9.328461;238.0;29 / 44;26561;2020-09-25 14:51:24:533
7.6129;9.9137;1.6917;4.6471;8.4461;1.7993;-2.1282;0.2929;-0.3432;-0.5644;-0.2507;0.988;368.0;14.39;-14.8;-13.3;234.88;-64.02;-63.38;0.0;1009.8;57.674;37.51052;127.06017;48.28;NaN;;1.41;9.328461;238.0;29 / 44;27059;2020-09-25 14:51:25:031
3.2304;8.565;-1.0631;3.5861;9.1163;0.4516;-2.2807;-2.6047;-0.2922;-1.7336;-0.8064;2.1462;427.0;17.5;-14.17;-8.26;196.96;-68.72;-94.79;0.0;1009.8;56.254;37.510513;127.06016;48.63;NaN;;1.1;10.245119;234.0;29 / 44;27560;2020-09-25 14:51:25:532
8.3387;10.9258;-2.0321;4.814;8.5422;-0.1643;-1.8487;-1.365;0.8786;0.1441;0.7683;-0.2169;868.0;16.45;-16.46;-1.49;181.19;-60.58;-91.95;0.0;1009.82;54.629;37.510513;127.06016;48.63;NaN;;1.1;10.245119;234.0;29 / 44;28059;2020-09-25 14:51:26:031
1.7596;6.5444;0.561;3.8567;8.9794;0.8164;0.5514;0.3702;0.3877;-0.648;0.175;0.5975;625.0;21.19;-17.39;1.38;203.85;-63.88;-77.08;0.0;1009.83;56.31;37.510506;127.060135;49.4;NaN;;2.88;9.407331;248.2;30 / 44;28559;2020-09-25 14:51:26:531
4.3024;7.0619;1.4749;4.1985;8.7582;1.3554;0.7399;-0.062;0.6425;-0.0029;0.0905;-0.2602;292.0;18.61;-13.94;-12.14;222.02;-63.26;-72.11;0.0;1009.81;54.814;37.510506;127.060135;49.4;NaN;;2.88;9.407331;248.2;30 / 44;29059;2020-09-25 14:51:27:031
6.7769;10.1281;1.8187;4.668;8.4255;1.8416;0.8727;1.5452;0.4259;0.3337;-0.1641;0.324;257.0;16.38;-10.6;-12.6;233.11;-62.79;-67.16;0.0;1009.82;58.212;37.5105;127.060104;50.58;NaN;;1.74;9.367955;257.1;29 / 44;29559;2020-09-25 14:51:27:531
6.7469;8.074;2.7948;4.6703;8.5238;1.3051;-1.004;0.5284;0.4228;-0.8451;-0.0799;0.5004;277.0;13.74;-10.53;-13.09;229.08;-60.36;-74.39;0.0;1009.81;53.049;37.5105;127.060104;50.58;NaN;;1.74;9.367955;257.1;29 / 44;30059;2020-09-25 14:51:28:031
5.5552;8.9399;0.2568;4.7741;8.5631;0.2261;0.302;0.1007;0.4749;-0.4975;-0.24;-0.0866;479.0;17.88;-14.54;-2.92;198.66;-56.1;-75.23;0.0;1009.81;51.848;37.510506;127.06008;50.77;NaN;;1.83;9.518081;257.0;30 / 44;30560;2020-09-25 14:51:28:532
3.7777;8.9172;1.5121;4.7451;8.5229;1.0072;-0.4117;-0.0896;-1.2016;0.2722;-0.0271;0.0804;308.0;19.08;-15.44;-1.25;191.89;-60.35;-78.02;0.0;1009.8;52.742;37.510506;127.06008;50.77;NaN;;1.83;9.518081;257.0;30 / 44;31060;2020-09-25 14:51:29:032
4.9647;10.7078;2.372;4.0468;8.8539;1.1841;0.5686;-0.8004;-1.539;-0.954;-0.2516;-0.2293;518.0;21.95;-14.43;0.73;184.22;-62.31;-82.41;0.0;1009.79;51.808;37.510494;127.06006;52.12;NaN;;1.87;10.172528;249.0;30 / 44;31559;2020-09-25 14:51:29:531
6.0738;7.9865;2.2858;4.1562;8.6989;1.7958;1.067;-0.2944;-1.3992;-0.5552;-1.2;-0.2803;646.0;22.62;-13.02;-4.09;209.06;-62.43;-66.27;0.0;1009.8;55.2;37.510494;127.06006;52.12;NaN;;1.87;10.172528;249.0;30 / 44;32060;2020-09-25 14:51:30:032
3.4256;10.0754;2.2606;3.7777;8.7906;2.1506;-1.1063;-0.3865;-0.5409;0.0233;-0.4205;0.3693;315.0;14.83;-10.67;-18.56;251.23;-63.69;-60.35;0.0;1009.8;52.683;37.510494;127.06004;53.98;NaN;;1.19;11.059141;246.5;30 / 44;32559;2020-09-25 14:51:30:531
4.2101;4.5466;0.9455;4.2368;8.8215;0.6329;1.553;0.4682;0.4834;-0.1858;0.8123;0.6474;267.0;16.15;-12.95;-10.86;215.67;-64.1;-81.5;0.0;1009.81;53.179;37.510494;127.06004;53.98;NaN;;1.19;11.059141;246.5;30 / 44;33059;2020-09-25 14:51:31:031
6.0307;9.0034;1.9408;4.5437;8.6413;0.9234;-0.2766;-0.1332;0.5433;-0.1455;-0.1;-0.1143;393.0;18.74;-18.7;-8.49;209.28;-60.42;-72.74;0.0;1009.81;53.365;37.51049;127.06001;55.38;NaN;;2.03;12.368871;250.5;30 / 44;33559;2020-09-25 14:51:31:531
5.4893;9.8227;2.8272;4.4088;8.652;1.3695;-0.8556;-0.2326;-0.7657;-0.7016;-0.3469;0.5453;371.0;17.85;-16.75;-7.52;211.63;-61.92;-72.74;0.0;1009.81;50.989;37.51049;127.06001;55.38;NaN;;2.03;12.368871;250.5;30 / 44;34060;2020-09-25 14:51:32:032
3.6688;8.7339;1.4426;4.2475;8.8191;0.5933;0.2115;-0.0317;0.8476;-0.2417;0.0464;0.3802;463.0;20.07;-20.15;-7.87;204.44;-60.03;-79.01;0.0;1009.81;54.621;37.510487;127.059975;56.69;NaN;;2.44;13.921692;258.9;29 / 44;34560;2020-09-25 14:51:32:532
5.9876;9.3987;0.7467;4.5874;8.6231;0.8768;-0.1459;0.3528;0.0326;0.0878;0.0725;0.0831;447.0;20.67;-18.36;1.39;186.29;-61.56;-79.18;0.0;1009.8;52.367;37.510487;127.059975;56.69;NaN;;2.44;13.921692;258.9;29 / 44;35059;2020-09-25 14:51:33:031
2.3884;8.4093;1.13;4.3132;8.7131;1.2842;-0.4278;-0.1683;-0.2308;-0.0759;-0.0632;-0.0934;798.0;22.83;-18.57;-2.69;196.8;-61.84;-76.05;0.0;1009.8;49.653;37.510483;127.05994;58.06;NaN;;2.64;11.685033;246.4;29 / 44;35559;2020-09-25 14:51:33:531
4.1347;6.0127;2.2391;4.6061;8.5256;1.506;-1.5368;0.0865;-0.8729;-0.3248;-0.1435;0.007;467.0;22.08;-15.64;-9.84;214.95;-60.39;-71.89;0.0;1009.8;53.597;37.510483;127.05994;58.06;NaN;;2.64;11.685033;246.4;29 / 44;36059;2020-09-25 14:51:34:031
-0.067;8.4105;3.0823;4.5589;8.4721;1.9003;-2.5469;-1.7531;-0.2947;-0.6375;-0.5231;0.3637;428.0;16.96;-12.33;-13.62;236.63;-64.86;-63.58;0.0;1009.8;57.588;37.51048;127.059906;59.14;NaN;;1.63;12.026176;246.9;29 / 44;36559;2020-09-25 14:51:34:531
3.24;9.9077;0.3323;4.2867;8.8053;0.5121;-0.4112;0.1968;-0.1063;-0.3652;-0.1072;0.2004;238.0;15.56;-15.06;-10.07;213.69;-59.0;-78.56;0.0;1009.8;55.134;37.51048;127.059906;59.14;NaN;;1.63;12.026176;246.9;29 / 44;37059;2020-09-25 14:51:35:031
5.8738;8.4033;1.9792;4.87;8.4891;0.6243;-0.6602;0.1569;0.9201;-0.195;-0.6584;0.151;261.0;14.56;-17.95;-8.67;213.73;-60.9;-73.94;0.0;1009.79;55.172;37.51047;127.05986;61.43;NaN;;2.68;10.614586;246.6;28 / 44;37559;2020-09-25 14:51:35:531
2.0147;4.2208;0.143;4.6868;8.5432;1.1041;-0.1312;0.4265;0.7533;0.5772;0.9721;-0.3704;250.0;15.13;-14.95;-8.73;213.71;-60.59;-76.74;0.0;1009.79;55.919;37.51047;127.05986;61.43;NaN;;2.68;10.614586;246.6;28 / 44;38059;2020-09-25 14:51:36:031
8.1639;10.9581;1.6833;4.6672;8.5295;1.2786;0.755;0.5854;0.7543;0.2243;0.0558;-0.0481;287.0;16.06;-12.91;-11.58;220.12;-64.27;-78.75;0.0;1009.78;53.967;37.510464;127.05983;62.77;NaN;;2.18;10.445766;250.3;28 / 44;38559;2020-09-25 14:51:36:531
4.1407;5.6605;1.4965;4.2114;8.7884;1.095;0.4941;0.6136;-0.9216;-0.1595;-0.2114;0.3611;268.0;18.2;-14.73;-9.73;210.26;-61.0;-81.45;0.0;1009.78;56.326;37.510464;127.05983;62.77;NaN;;2.18;10.445766;250.3;28 / 44;39059;2020-09-25 14:51:37:031
5.3935;5.4557;0.0233;4.2651;8.7401;1.2612;-0.1092;-0.2488;-0.0402;-0.1169;-0.4885;0.0416;242.0;19.93;-14.88;-12.54;219.34;-61.66;-75.77;0.0;1009.78;56.847;37.51046;127.05979;63.37;NaN;;2.37;10.188528;253.0;29 / 44;39559;2020-09-25 14:51:37:531
2.998;8.8609;1.8522;4.4824;8.6636;1.0104;-0.6906;1.3682;0.5011;-0.5506;-0.2857;-0.1739;242.0;20.64;-13.36;-13.42;218.61;-62.06;-77.3;0.0;1009.78;53.828;37.51046;127.05979;63.37;NaN;;2.37;10.188528;253.0;29 / 44;40059;2020-09-25 14:51:38:031
3.0986;2.3775;0.3287;4.6548;8.4867;1.5745;-1.9236;0.2478;-0.3484;0.4208;0.8054;0.1052;202.0;23.08;-12.64;-10.69;218.56;-59.93;-71.31;0.0;1009.78;56.152;37.510452;127.05976;65.32;NaN;;2.38;10.827297;252.7;28 / 44;40559;2020-09-25 14:51:38:531
5.427;7.3493;-0.5373;3.9967;8.8503;1.3672;-1.2507;-2.5425;-0.4063;-0.4955;0.0745;0.8604;500.0;18.59;-9.85;-14.64;231.55;-64.49;-71.11;0.0;1009.78;54.736;37.510452;127.05976;65.32;NaN;;2.38;10.827297;252.7;28 / 44;41059;2020-09-25 14:51:39:031
6.5385;10.503;1.0389;4.0829;8.8769;0.8377;2.2314;-0.6806;0.5771;-0.3512;-0.403;-0.2707;707.0;20.22;-10.46;-11.3;213.65;-63.48;-81.61;0.0;1009.78;56.698;37.51045;127.05973;66.01;NaN;;2.59;10.221316;256.3;28 / 44;41559;2020-09-25 14:51:39:531
8.6873;13.9692;4.3699;5.2125;8.2995;0.3454;-1.2842;-0.2092;0.0391;0.7477;1.0148;-1.0581;232.0;17.54;-12.4;-9.39;211.59;-55.75;-79.01;0.0;1009.78;53.184;37.51045;127.05973;66.01;NaN;;2.59;10.221316;256.3;28 / 44;42059;2020-09-25 14:51:40:031
2.6375;11.6001;-2.1291;4.6346;8.5679;1.1327;3.7798;2.8612;2.1219;0.8056;1.0418;-0.3034;223.0;23.64;-10.11;-8.07;196.77;-63.95;-90.39;0.0;1009.75;54.929;37.51044;127.05969;55.37;NaN;;1.79;11.190464;259.0;28 / 44;42559;2020-09-25 14:51:40:531
5.4654;7.6571;0.0592;4.6645;8.6212;0.2967;-0.0399;0.3967;0.5893;0.3187;0.6128;-0.2246;242.0;20.88;-10.57;-9.2;204.0;-61.54;-86.36;0.0;1009.76;53.358;37.51044;127.05969;55.37;NaN;;1.79;11.190464;259.0;28 / 44;43060;2020-09-25 14:51:41:032
3.5202;9.9748;1.2294;4.509;8.6966;0.4565;-0.937;-0.458;0.1239;-0.2949;-0.3609;0.279;244.0;17.07;-10.75;-11.0;216.31;-62.73;-80.95;0.0;1009.78;54.272;37.510433;127.059654;57.73;NaN;;2.79;9.833422;250.8;28 / 44;43559;2020-09-25 14:51:41:531
5.4714;6.5085;-1.8404;3.9676;8.8586;1.3979;0.6704;0.7203;-1.2247;-0.7885;-1.2957;-0.0253;395.0;25.28;-12.63;-2.87;198.02;-63.49;-76.48;0.0;1009.83;54.436;37.510433;127.059654;57.73;NaN;;2.79;9.833422;250.8;28 / 44;44060;2020-09-25 14:51:42:032
3.0639;11.0575;0.2856;4.4652;8.6996;0.7407;-1.9098;-0.151;0.4015;-0.3351;-0.3817;0.7241;279.0;14.2;-8.77;-13.33;226.15;-62.51;-80.58;0.0;1009.84;57.134;37.51042;127.05962;59.03;NaN;;2.13;9.696105;242.8;27 / 44;44559;2020-09-25 14:51:42:531
6.9829;7.9937;0.5287;4.5509;8.6135;1.1262;0.7916;0.8552;0.4937;0.2624;0.1074;0.084;257.0;18.7;-10.79;-6.59;207.73;-62.66;-78.37;0.0;1009.85;55.146;37.51042;127.05962;59.03;NaN;;2.13;9.696105;242.8;27 / 44;45060;2020-09-25 14:51:43:032
3.7825;11.2659;0.4413;3.9706;8.9266;0.8492;-0.3083;-1.4608;0.4656;-0.2892;-0.0075;-0.4928;242.0;19.84;-13.47;-8.6;208.97;-60.5;-80.14;0.0;1009.85;56.016;37.510406;127.05959;59.83;NaN;;1.77;9.918459;244.5;26 / 44;45559;2020-09-25 14:51:43:531
6.0079;6.5468;1.0114;6.5009;7.334;-0.3483;-0.6154;1.0677;1.9946;0.3616;-0.0364;-1.141;1391.0;0.15;-15.01;-13.45;243.76;-55.04;-77.29;0.0;1009.84;55.087;37.510406;127.05959;59.83;NaN;;1.77;9.918459;244.5;26 / 44;46059;2020-09-25 14:51:44:031
4.1814;6.9457;0.3239;4.8756;8.5024;0.3292;0.124;1.3627;-0.3015;-1.5723;-1.3073;-0.0537;632.0;18.72;-20.17;-0.99;179.83;-62.38;-93.25;0.0;1009.86;56.709;37.5104;127.05958;60.86;NaN;;1.62;10.4516;242.1;26 / 44;46559;2020-09-25 14:51:44:531
7.0631;9.552;-0.0785;4.4919;8.7142;0.2366;-0.4481;0.0936;0.2349;-1.2625;-1.0854;-0.0717;467.0;25.53;-18.94;1.61;178.87;-62.7;-86.98;0.0;1009.87;51.894;37.5104;127.05958;60.86;NaN;;1.62;10.4516;242.1;26 / 44;47059;2020-09-25 14:51:45:031
5.9061;7.8284;-3.631;4.5481;8.668;0.5921;0.8178;0.231;0.9049;0.0032;-0.1052;-0.7472;670.0;26.61;-18.02;-0.24;189.67;-61.95;-78.42;0.0;1009.87;57.603;37.510387;127.059555;62.53;NaN;;1.31;11.335417;241.5;25 / 44;47559;2020-09-25 14:51:45:531
7.8692;11.9415;2.3289;4.6163;8.4548;1.8374;-2.6512;-0.195;-0.9367;-0.0746;-1.3439;1.2381;1470.0;14.95;-11.73;-20.37;239.27;-61.43;-74.73;0.0;1009.86;57.171;37.510387;127.059555;62.53;NaN;;1.31;11.335417;241.5;25 / 44;48059;2020-09-25 14:51:46:031
3.2711;12.2373;0.9288;3.7565;9.0585;0.0565;-1.9985;-2.194;0.0563;0.4434;1.3854;0.2357;270.0;22.94;-12.08;-9.7;201.93;-67.47;-89.14;0.0;1009.8;54.925;37.510376;127.059525;62.19;NaN;;2.88;10.101882;244.1;26 / 44;48560;2020-09-25 14:51:46:532
3.9945;9.4358;-1.3122;4.5789;8.5819;1.2471;0.6272;0.23;-0.7604;-0.2939;-1.1714;0.1781;327.0;22.66;-15.62;-7.28;195.51;-61.32;-88.3;0.0;1009.83;56.774;37.510376;127.059525;62.19;NaN;;2.88;10.101882;244.1;26 / 44;49059;2020-09-25 14:51:47:031
4.8653;8.4752;1.5168;4.1546;8.844;0.8329;1.5347;-0.0211;0.4224;0.1161;-0.0013;-0.2611;350.0;21.61;-14.18;-11.93;207.27;-59.57;-85.22;0.0;1009.85;54.565;37.510365;127.05952;62.9;NaN;;0.95;10.784802;244.0;27 / 44;49559;2020-09-25 14:51:47:531
4.1011;7.0762;0.4916;4.3329;8.563;2.018;1.3766;0.4649;0.0111;0.8201;0.6813;0.1537;265.0;26.84;-15.91;-9.18;217.11;-60.83;-65.03;0.0;1009.86;55.466;37.510365;127.05952;62.9;NaN;;0.95;10.784802;244.0;27 / 44;50059;2020-09-25 14:51:48:031
6.505;6.9241;-0.2846;4.4788;8.6455;1.1688;0.186;0.4426;-0.1405;-0.0495;-1.3777;-0.3188;1080.0;6.04;-12.38;-23.63;262.63;-61.83;-69.42;0.0;1009.83;55.658;37.510353;127.05952;62.98;NaN;;1.23;12.146876;243.8;29 / 44;50559;2020-09-25 14:51:48:531
4.1227;7.2535;0.4988;4.4529;8.7221;0.5174;-0.4667;-0.6796;-0.4953;0.0863;-0.2046;0.4989;262.0;18.95;-14.22;-16.02;215.19;-61.44;-87.19;0.0;1009.81;53.849;37.510353;127.05952;62.98;NaN;;1.23;12.146876;243.8;29 / 44;51060;2020-09-25 14:51:49:032
3.6125;13.2913;2.0307;4.631;8.621;0.6348;-0.5484;-0.4656;-0.1367;0.0997;0.0499;0.1333;222.0;24.54;-15.41;-9.06;204.57;-63.07;-81.4;0.0;1009.83;56.08;37.510338;127.059494;61.97;NaN;;3.08;10.125917;248.4;29 / 44;51559;2020-09-25 14:51:49:531
4.1682;8.601;0.9407;3.7304;9.0565;0.4847;-1.3693;-1.1768;-0.442;-0.2242;-0.074;0.6629;206.0;21.78;-15.94;-11.15;208.82;-67.44;-82.6;0.0;1009.86;56.211;37.510338;127.059494;61.97;NaN;;3.08;10.125917;248.4;29 / 44;52059;2020-09-25 14:51:50:031
7.4728;9.1555;-2.0979;4.1737;8.8486;0.6732;0.8385;0.4806;-2.2346;-0.5046;-1.3808;-0.1198;339.0;20.21;-17.56;-9.18;204.66;-59.91;-82.45;0.0;1009.86;53.11;37.510323;127.05947;62.0;NaN;;2.4;9.950502;248.5;29 / 44;52559;2020-09-25 14:51:50:531
2.9765;7.1912;0.4149;4.4739;8.6152;1.3902;1.2636;0.6623;0.1704;0.8;0.8581;-0.3917;183.0;22.94;-19.15;-8.49;208.82;-61.46;-72.74;0.0;1009.85;55.271;37.510323;127.05947;62.0;NaN;;2.4;9.950502;248.5;29 / 44;53059;2020-09-25 14:51:51:031
5.3144;10.9677;1.0533;4.3237;8.7055;1.2999;0.7049;0.7963;0.5403;0.1636;1.4798;-0.3203;146.0;21.85;-12.63;-12.85;221.32;-62.59;-73.27;0.0;1009.85;51.714;37.510315;127.059456;61.78;NaN;;1.02;10.395189;246.8;30 / 44;53559;2020-09-25 14:51:51:531
7.789;12.1714;3.1134;5.0268;8.3352;1.194;-0.0349;0.4953;0.6195;1.0126;0.7234;-0.3693;675.0;8.69;-17.95;-20.64;244.96;-58.91;-70.77;0.0;1009.86;47.8;37.510315;127.059456;61.78;NaN;;1.02;10.395189;246.8;30 / 44;54059;2020-09-25 14:51:52:031
1.5739;7.5769;1.4198;4.3492;8.7236;1.074;-0.6624;-0.9304;0.7247;0.7463;1.7053;0.0562;1223.0;20.23;-15.75;-13.41;216.21;-64.04;-79.32;0.0;1009.86;52.681;37.510303;127.05944;61.48;NaN;;2.82;9.598104;249.6;29 / 44;54559;2020-09-25 14:51:52:531
5.4007;6.3456;-2.9244;4.7482;8.5702;0.4206;-1.0065;-0.1537;0.8782;0.2511;0.586;-0.2053;335.0;16.9;-17.6;-14.91;216.29;-60.92;-84.94;0.0;1009.87;46.602;37.510303;127.05944;61.48;NaN;;2.82;9.598104;249.6;29 / 44;55059;2020-09-25 14:51:53:031
3.3789;10.9102;0.1658;4.4168;8.7174;0.8177;-0.1941;-0.1603;0.2987;0.5116;0.4078;-0.0441;178.0;18.9;-18.63;-14.61;218.51;-62.74;-79.51;0.0;1009.86;50.668;37.51029;127.059425;60.36;NaN;;2.24;9.339977;249.0;29 / 44;55560;2020-09-25 14:51:53:532
3.7718;10.3245;1.0761;4.7528;8.555;0.627;-0.6304;0.0327;1.1211;0.7781;1.4193;0.0592;192.0;22.43;-19.66;-7.81;201.18;-60.74;-82.49;0.0;1009.82;50.546;37.51029;127.059425;60.36;NaN;;2.24;9.339977;249.0;29 / 44;56059;2020-09-25 14:51:54:031
-0.1305;6.5828;1.4055;4.5844;8.6184;0.9359;3.1052;2.5482;1.4201;-0.4045;-0.2315;0.5261;220.0;25.43;-17.35;-14.43;212.04;-64.63;-82.27;0.0;1009.83;51.013;37.51028;127.05942;59.27;NaN;;0.55;9.94627;248.0;30 / 44;56559;2020-09-25 14:51:54:531
5.2917;6.3336;-1.638;4.1118;8.8646;0.8254;-2.2355;-1.3393;-0.9598;-0.2829;-0.4747;-0.3733;247.0;28.53;-11.9;-12.01;213.21;-63.15;-76.59;0.0;1009.85;54.918;37.51028;127.05942;59.27;NaN;;0.55;9.94627;248.0;30 / 44;57059;2020-09-25 14:51:55:031
1.2649;7.0056;0.2149;4.5407;8.6108;1.1862;0.4012;-0.2882;-0.282;0.3418;-0.41;0.2368;191.0;22.41;-13.6;-11.06;216.99;-60.37;-73.14;0.0;1009.84;53.835;37.51028;127.05942;59.27;NaN;;0.55;9.94627;248.0;30 / 44;57559;2020-09-25 14:51:55:531
3.9538;8.7004;1.7732;5.1146;8.295;1.0976;-0.2992;0.9243;0.7699;0.8285;0.3288;0.0933;207.0;20.88;-15.36;-11.06;215.04;-63.06;-75.82;0.0;1009.85;55.809;37.51028;127.05942;59.27;NaN;;0.55;9.94627;248.0;30 / 44;58059;2020-09-25 14:51:56:031
4.1215;7.2379;-0.9709;4.253;8.8137;0.6338;0.3676;0.2348;1.2623;-0.8749;0.0697;-0.2519;289.0;23.2;-12.53;-11.01;209.26;-63.91;-82.41;0.0;1009.85;52.577;37.510265;127.059395;59.75;NaN;;3.13;10.692367;240.2;30 / 44;58560;2020-09-25 14:51:56:532
7.6441;10.994;2.8475;4.426;8.5784;1.7297;-0.2176;0.0283;-0.1794;0.1951;-0.4517;-0.0983;188.0;21.83;-10.98;-12.78;222.18;-63.75;-73.78;0.0;1009.87;51.598;37.510265;127.059395;59.75;NaN;;3.13;10.692367;240.2;30 / 44;59059;2020-09-25 14:51:57:031
1.1703;4.9323;1.2677;4.2805;8.772;0.949;0.0861;-0.582;-0.4312;-0.0934;0.3408;0.2026;198.0;18.97;-13.86;-17.61;231.32;-59.71;-73.05;0.0;1009.89;54.541;37.510258;127.05938;60.17;NaN;;0.91;11.771195;238.5;29 / 44;59559;2020-09-25 14:51:57:531
4.3946;6.3253;1.4294;4.2957;8.7152;1.3279;0.3502;0.9052;0.5752;0.0218;0.2351;0.4943;198.0;20.3;-11.43;-18.07;233.81;-64.39;-72.29;0.0;1009.89;56.72;37.510258;127.05938;60.17;NaN;;0.91;11.771195;238.5;29 / 44;60059;2020-09-25 14:51:58:031
4.6449;6.4834;-0.3193;4.6275;8.5887;0.9956;-0.6684;0.8443;0.362;0.0718;-0.1945;0.035;212.0;19.1;-12.79;-17.51;231.0;-62.56;-74.84;0.0;1009.89;51.244;37.510246;127.059364;59.29;NaN;;1.2;13.018415;231.5;29 / 44;60559;2020-09-25 14:51:58:531
2.2339;3.1992;0.3371;4.8551;8.4999;0.5913;-0.7396;-1.2754;0.9526;0.8382;0.7648;0.0447;244.0;20.26;-15.59;-17.41;219.5;-60.08;-83.06;0.0;1009.9;51.259;37.510246;127.059364;59.29;NaN;;1.2;13.018415;231.5;29 / 44;61060;2020-09-25 14:51:59:032
3.8796;5.5791;1.0833;4.4403;8.6273;1.4227;-0.9342;-0.196;0.4462;-0.688;-0.14;0.1437;467.0;27.76;-15.09;-14.1;211.22;-64.04;-81.56;0.0;1009.9;52.103;37.51024;127.05934;57.98;NaN;;1.62;14.334872;240.1;30 / 44;61559;2020-09-25 14:51:59:531
6.2008;11.0959;1.3767;4.3354;8.7323;1.0594;1.3843;-0.3335;-0.3992;-0.1202;-0.6951;-0.6874;271.0;23.7;-13.92;-22.13;230.29;-62.93;-76.27;0.0;1009.92;53.745;37.51024;127.05934;57.98;NaN;;1.62;14.334872;240.1;30 / 44;62059;2020-09-25 14:52:00:031
3.9227;9.8346;0.9539;4.4812;8.5665;1.6442;0.9654;1.0225;0.2934;0.5498;-0.7753;-0.0788;226.0;22.0;-15.77;-21.91;235.77;-60.87;-69.85;0.0;1009.91;51.123;37.51024;127.05932;57.66;NaN;;1.17;14.422337;267.1;30 / 44;62559;2020-09-25 14:52:00:531
4.8485;7.42;2.0403;5.0146;8.2819;1.5602;-1.4588;1.0208;-0.4174;0.5198;0.2643;-0.1563;1241.0;8.78;-10.79;-31.93;260.96;-56.08;-72.52;0.0;1009.9;53.383;37.51024;127.05932;57.66;NaN;;1.17;14.422337;267.1;30 / 44;63059;2020-09-25 14:52:01:031
2.2686;10.3042;3.7494;4.4078;8.6987;1.0369;1.2989;1.3181;0.225;-0.8668;-1.2816;0.5043;1500.0;17.28;-15.25;-23.97;235.08;-65.25;-81.5;0.0;1009.91;53.03;37.51023;127.059296;59.62;NaN;;1.23;14.794242;248.0;30 / 44;63559;2020-09-25 14:52:01:531
1.8709;6.2965;0.7563;5.1653;8.3133;0.616;-1.5444;1.362;1.0555;0.8577;1.6575;-0.151;289.0;15.57;-16.68;-22.14;231.53;-60.14;-81.13;0.0;1009.89;52.22;37.51023;127.059296;59.62;NaN;;1.23;14.794242;248.0;30 / 44;64059;2020-09-25 14:52:02:031
4.3;5.2832;0.1886;4.869;8.4648;0.9005;-0.1823;0.9669;1.0768;0.0519;0.2806;0.3862;252.0;22.94;-17.95;-14.04;202.77;-64.23;-88.57;0.0;1009.88;50.768;37.510223;127.059265;58.88;NaN;;1.46;15.339228;227.3;29 / 44;64560;2020-09-25 14:52:02:532
8.6573;16.7731;4.1758;4.2874;8.773;0.9076;-0.3544;-1.417;0.1067;-0.3917;-0.5725;0.1;303.0;21.1;-18.2;-19.07;225.04;-63.46;-78.05;0.0;1009.87;55.608;37.510223;127.059265;58.88;NaN;;1.46;15.339228;227.3;29 / 44;65059;2020-09-25 14:52:03:031
3.2591;5.8534;-1.9578;4.8765;8.4467;1.0218;-0.3458;-0.6781;0.2244;0.264;0.3211;-0.3095;347.0;19.02;-17.38;-14.64;216.62;-58.81;-82.65;0.0;1009.86;55.655;37.510216;127.059235;58.18;NaN;;2.45;14.553653;246.9;28 / 44;65560;2020-09-25 14:52:03:532
7.1745;12.3786;2.3517;4.5429;8.6774;0.4842;-0.0661;0.0817;0.818;0.3438;0.1769;0.3241;430.0;21.32;-19.63;-11.65;211.67;-63.31;-79.31;0.0;1009.85;52.566;37.510216;127.059235;58.18;NaN;;2.45;14.553653;246.9;28 / 44;66060;2020-09-25 14:52:04:032
4.5874;7.2104;-0.8786;4.3917;8.695;1.1319;0.7084;-1.2191;0.9844;0.2695;0.8586;-0.727;298.0;23.85;-18.95;-14.94;216.63;-61.07;-77.28;0.0;1009.87;53.374;37.51021;127.05919;59.54;NaN;;1.81;15.021992;244.7;29 / 44;66560;2020-09-25 14:52:04:532
4.2952;9.0357;2.6655;4.9469;8.2342;1.9738;-1.0797;-0.2287;-0.483;-0.0693;0.3046;0.0548;262.0;17.73;-14.24;-20.45;238.59;-57.1;-68.25;0.0;1009.88;52.627;37.51021;127.05919;59.54;NaN;;1.81;15.021992;244.7;29 / 44;67059;2020-09-25 14:52:05:031
3.3777;8.771;1.2126;4.1859;8.7743;1.2884;-0.3063;0.274;-0.1822;-0.793;-0.1989;0.3456;359.0;21.57;-17.09;-17.45;222.23;-63.64;-77.55;0.0;1009.89;49.796;37.510193;127.05916;59.22;NaN;;1.51;15.133705;232.9;29 / 44;67559;2020-09-25 14:52:05:531
0.5906;7.1074;0.5131;4.5704;8.6514;0.6602;0.083;-0.1713;-0.0782;0.0899;-0.3901;-0.5173;287.0;20.56;-17.39;-15.2;216.13;-61.91;-81.78;0.0;1009.88;55.989;37.510193;127.05916;59.22;NaN;;1.51;15.133705;232.9;29 / 44;68060;2020-09-25 14:52:06:032
2.883;7.2248;-0.3528;4.7661;8.511;1.0088;0.5337;0.7435;0.7868;0.6084;0.637;-0.4202;282.0;19.77;-19.02;-12.72;215.19;-60.23;-77.79;0.0;1009.89;52.617;37.51018;127.05913;58.64;NaN;;1.81;15.093214;241.6;29 / 44;68560;2020-09-25 14:52:06:532
5.3588;5.2976;-0.4319;4.1043;8.8829;0.6478;1.298;-0.6593;-0.789;0.5186;0.2008;-0.7177;334.0;22.15;-16.88;-11.86;211.24;-64.93;-81.03;0.0;1009.9;57.116;37.51018;127.05913;58.64;NaN;;1.81;15.093214;241.6;29 / 44;69060;2020-09-25 14:52:07:032
0.5295;8.171;1.9935;4.4723;8.6365;1.2568;2.5074;3.5765;-0.1692;0.2922;-0.8638;-1.3042;350.0;20.28;-18.14;-15.99;225.28;-61.67;-72.45;0.0;1009.91;57.182;37.510174;127.05909;59.04;NaN;;1.6;13.309142;258.1;29 / 44;69559;2020-09-25 14:52:07:531
-0.7437;5.9959;1.2102;4.1355;8.8214;1.1185;-2.26;-2.9949;-0.5611;0.3666;-0.0882;1.036;278.0;16.92;-18.11;-17.83;233.78;-62.29;-69.13;0.0;1009.9;58.386;37.510174;127.05909;59.04;NaN;;1.6;13.309142;258.1;29 / 44;70059;2020-09-25 14:52:08:031
3.2316;6.0917;1.4546;4.5404;8.6795;0.47;-0.6559;0.5216;-0.2038;-0.1275;0.7009;0.7461;317.0;17.65;-14.75;-14.15;216.21;-62.26;-84.09;0.0;1009.9;57.8;37.510162;127.05906;58.77;NaN;;1.46;12.801641;268.2;28 / 44;70560;2020-09-25 14:52:08:532
5.1995;12.5236;1.5085;4.6817;8.582;0.7748;0.0906;1.7924;0.1516;-0.3135;-0.8189;-0.0543;341.0;13.99;-14.87;-19.56;233.17;-61.06;-80.6;0.0;1009.9;53.849;37.510162;127.05906;58.77;NaN;;1.46;12.801641;268.2;28 / 44;71060;2020-09-25 14:52:09:032
4.5467;8.3602;0.9635;4.005;8.923;0.7148;0.9979;0.0271;0.5111;-1.0195;-0.9066;0.5874;169.0;23.56;-17.69;-14.51;212.77;-61.54;-82.72;0.0;1009.9;56.741;37.510155;127.05902;59.05;NaN;;1.55;12.192194;269.9;26 / 44;71559;2020-09-25 14:52:09:531
1.8793;13.665;0.2413;5.0335;8.3857;0.7164;0.6721;0.0735;0.9321;1.0943;0.3541;-1.4789;548.0;28.87;-17.22;-12.56;208.07;-58.77;-81.9;0.0;1009.91;55.87;37.510155;127.05902;59.05;NaN;;1.55;12.192194;269.9;26 / 44;72059;2020-09-25 14:52:10:031
8.3447;10.5569;-2.3063;4.178;8.7674;1.3591;-0.5485;-0.9739;-1.0574;0.3597;-0.8573;-0.3584;332.0;27.74;-16.05;-14.43;217.95;-58.01;-72.94;0.0;1009.91;58.423;37.510147;127.05899;59.75;NaN;;1.54;11.809017;272.1;25 / 44;72559;2020-09-25 14:52:10:531
3.9502;5.9228;1.0413;4.4869;8.6486;1.1133;-0.8888;-0.0329;-0.0625;-0.4039;-0.037;-0.4711;193.0;27.3;-16.13;-22.41;227.55;-60.77;-75.3;0.0;1009.93;56.035;37.510147;127.05899;59.75;NaN;;1.54;11.809017;272.1;25 / 44;73060;2020-09-25 14:52:11:032
3.6208;9.7783;1.2749;3.773;9.0385;0.4896;-0.9839;-1.6204;-0.3755;-0.4765;-0.3542;0.3499;262.0;29.5;-13.53;-17.05;219.98;-59.82;-76.27;0.0;1009.9;54.712;37.510136;127.058975;60.98;NaN;;1.1;12.358068;259.1;26 / 44;73559;2020-09-25 14:52:11:531
1.4062;3.8076;-1.2535;4.2373;8.8087;0.7895;1.2323;0.8925;-0.3149;-0.7448;-1.0384;-0.1047;215.0;23.39;-16.75;-18.39;221.43;-63.93;-79.45;0.0;1009.86;58.167;37.510136;127.058975;60.98;NaN;;1.1;12.358068;259.1;26 / 44;74059;2020-09-25 14:52:12:031
3.4208;7.7853;1.2569;4.7253;8.5585;0.7706;1.7065;0.9456;1.9852;0.0843;0.1954;-0.7501;178.0;25.55;-15.73;-25.29;227.23;-60.78;-80.74;0.0;1009.86;61.766;37.510124;127.058945;61.28;NaN;;2.55;10.902555;250.3;26 / 44;74559;2020-09-25 14:52:12:531
2.8782;8.4189;1.7037;4.4434;8.5829;1.6614;0.2128;0.2042;-0.1173;-0.5993;-0.7529;0.7178;154.0;23.86;-10.13;-26.03;235.34;-65.32;-78.62;0.0;1009.89;55.191;37.510124;127.058945;61.28;NaN;;2.55;10.902555;250.3;26 / 44;75059;2020-09-25 14:52:13:031
5.7528;8.8214;1.3348;4.4541;8.6439;1.2706;-0.1287;0.2637;0.0499;-0.5879;-0.1177;0.7909;151.0;19.49;-12.99;-29.44;243.46;-64.74;-76.77;0.0;1009.93;54.338;37.510113;127.05892;61.87;NaN;;1.43;10.413957;246.3;25 / 44;75559;2020-09-25 14:52:13:531
3.44;7.8907;1.0461;4.5998;8.5908;1.0999;-0.0965;0.3483;0.1174;-0.049;0.1097;0.1342;166.0;22.77;-13.13;-22.72;232.15;-61.71;-77.15;0.0;1009.97;52.606;37.510113;127.05892;61.87;NaN;;1.43;10.413957;246.3;25 / 44;76059;2020-09-25 14:52:14:031
5.1144;8.3926;1.4007;4.8647;8.3565;1.6353;-0.4727;0.2558;0.2613;0.3482;0.3028;0.2933;162.0;19.13;-16.99;-24.85;238.95;-62.88;-73.56;0.0;1009.98;55.303;37.5101;127.0589;62.8;NaN;;1.91;10.049541;234.6;24 / 44;76559;2020-09-25 14:52:14:531
5.2606;9.1675;2.3517;4.4471;8.6135;1.484;0.0972;-0.1533;0.4912;0.2065;0.3577;-0.291;153.0;27.0;-13.2;-21.64;231.89;-60.4;-72.17;0.0;1009.82;59.694;37.5101;127.0589;62.8;NaN;;1.91;10.049541;234.6;24 / 44;77059;2020-09-25 14:52:15:031
2.8711;9.3328;1.6354;3.7913;8.9107;1.548;0.5904;-0.3702;-0.9641;-0.6357;-0.6144;-0.119;128.0;29.47;-9.16;-23.4;236.81;-63.93;-68.97;0.0;1009.73;54.905;37.51009;127.05887;62.89;NaN;;1.78;9.915462;240.3;26 / 44;77560;2020-09-25 14:52:15:532
4.997;9.9041;3.232;4.5271;8.5584;1.559;-0.79;-0.0785;0.268;0.2362;0.1989;0.058;135.0;20.74;-8.17;-25.71;246.14;-61.92;-71.14;0.0;1009.65;55.829;37.51009;127.05887;62.89;NaN;;1.78;9.915462;240.3;26 / 44;78059;2020-09-25 14:52:16:031
4.5443;10.7485;0.6078;4.4056;8.6663;1.287;-0.0067;-0.1002;0.7955;0.523;0.2757;-0.2891;132.0;25.39;-12.61;-15.68;239.09;-63.72;-71.85;0.0;1009.62;57.018;37.51008;127.05884;62.99;NaN;;2.06;10.034243;243.7;27 / 44;78559;2020-09-25 14:52:16:531
4.1143;7.9111;-0.881;4.317;8.7331;1.1258;-0.2644;0.2508;0.4132;0.1309;-0.0786;0.021;140.0;25.64;-12.31;-20.96;231.91;-62.72;-73.52;0.0;1009.71;57.2;37.51008;127.05884;62.99;NaN;;2.06;10.034243;243.7;27 / 44;79059;2020-09-25 14:52:17:031
2.7788;8.177;1.3144;4.2308;8.6821;1.7007;-1.3778;0.4131;-0.3003;-0.0204;-0.1499;0.0431;124.0;24.18;-8.09;-23.6;240.17;-64.39;-71.98;0.0;1009.75;56.866;37.51007;127.05881;63.51;NaN;;1.99;10.139583;247.8;26 / 44;79559;2020-09-25 14:52:17:531
5.1516;9.8215;-0.6055;4.2241;8.8056;0.8886;0.4959;-0.3153;0.1438;-0.5121;-0.953;0.2636;113.0;25.12;-11.41;-17.94;225.82;-64.27;-76.21;0.0;1009.71;57.719;37.51007;127.05881;63.51;NaN;;1.99;10.139583;247.8;26 / 44;80059;2020-09-25 14:52:18:031
13.0506;15.3622;1.7971;4.9992;8.4081;0.694;-3.2656;-0.6965;0.0419;0.332;0.6021;-0.0193;133.0;20.78;-14.8;-12.79;216.14;-60.64;-78.71;0.0;1009.7;54.436;37.510067;127.05878;63.44;NaN;;2.17;10.787642;255.4;25 / 44;80560;2020-09-25 14:52:18:532
3.3789;8.1662;1.4689;4.569;8.605;1.1176;-0.8268;-0.4801;0.3338;-0.5363;-0.2367;0.3757;373.0;24.23;-15.34;-10.06;202.68;-64.66;-86.39;0.0;1009.69;52.804;37.510067;127.05878;63.44;NaN;;2.17;10.787642;255.4;25 / 44;81059;2020-09-25 14:52:19:031
2.4399;0.533;-4.5521;3.4105;9.1942;0.0715;-0.9686;1.0815;-1.9764;-0.7827;2.5799;0.4985;271.0;24.57;-15.29;-8.25;208.98;-64.78;-74.21;0.0;1009.64;65.282;37.510063;127.058754;63.58;NaN;;1.18;11.22878;249.5;28 / 44;81559;2020-09-25 14:52:19:531
5.1971;8.3183;2.1109;5.5557;7.9458;1.4728;1.5367;-0.4616;1.8359;2.6176;3.2868;-0.0662;359.0;17.14;-12.83;-18.49;231.68;-54.12;-75.15;0.0;1009.66;64.268;37.510063;127.058754;63.58;NaN;;1.18;11.22878;249.5;28 / 44;82059;2020-09-25 14:52:20:031
5.2198;6.7864;2.1049;2.9409;9.2651;-1.2959;1.2325;-0.6562;1.065;-0.3617;1.1456;-0.4118;134.0;30.63;-12.8;6.77;146.34;-70.87;-113.78;0.0;1009.6;53.097;37.510056;127.05872;63.41;NaN;;2.76;10.238862;250.4;29 / 44;82559;2020-09-25 14:52:20:531
9.1652;7.8057;-6.4026;5.7597;7.9323;0.2735;2.1057;-1.0184;2.3343;4.3495;5.122;-0.595;475.0;20.68;-20.35;-1.81;170.46;-54.57;-108.49;0.0;1009.58;59.588;37.510056;127.05872;63.41;NaN;;2.76;10.238862;250.4;29 / 44;83059;2020-09-25 14:52:21:031
4.0173;8.0776;-0.8942;2.5012;9.4807;-0.1768;0.6662;-1.618;0.2817;-1.5984;-1.8886;1.7565;15.0;29.93;-16.58;-9.33;165.84;-75.07;-122.36;0.0;1009.59;56.419;37.510048;127.05869;64.44;NaN;;1.0;10.522266;251.0;28 / 44;83559;2020-09-25 14:52:21:531
5.5768;10.1508;1.233;6.2028;6.956;3.0513;0.5046;-0.1081;-1.9596;1.3483;-0.1878;0.0307;126.0;16.31;-14.57;-18.32;236.87;-44.16;-63.59;0.0;1009.63;52.597;37.510048;127.05869;64.44;NaN;;1.0;10.522266;251.0;28 / 44;84059;2020-09-25 14:52:22:031
5.1587;9.1962;-0.5864;4.6705;8.5549;1.0821;-0.3657;0.3576;0.746;-0.1758;0.3688;0.5107;139.0;18.3;-14.76;-20.78;232.97;-60.73;-76.96;0.0;1009.64;51.901;37.51004;127.05868;65.51;NaN;;1.17;10.868738;250.5;30 / 44;84559;2020-09-25 14:52:22:531
3.7418;8.7435;0.5131;4.2932;8.7984;0.5728;0.1549;-0.1885;-0.1895;-1.1163;-0.7377;-0.0344;281.0;21.54;-13.49;-17.08;220.31;-63.79;-82.4;0.0;1009.65;50.474;37.51004;127.05868;65.51;NaN;;1.17;10.868738;250.5;30 / 44;85059;2020-09-25 14:52:23:031
5.439;8.7327;0.4988;4.1794;8.82;0.9542;0.3274;-0.3519;0.7947;-0.1797;-0.3969;-0.3077;137.0;22.02;-15.19;-19.48;225.86;-63.66;-78.11;0.0;1009.65;50.139;37.510036;127.058655;66.29;NaN;;1.99;10.431281;256.4;31 / 44;85559;2020-09-25 14:52:23:531
3.8388;10.7234;0.4832;4.1194;8.7499;1.6247;-0.306;-0.2422;-0.2194;-0.5167;-0.3233;1.0195;345.0;16.98;-9.83;-25.48;250.93;-65.31;-68.44;0.0;1009.65;53.547;37.510036;127.058655;66.29;NaN;;1.99;10.431281;256.4;31 / 44;86060;2020-09-25 14:52:24:032
4.1862;8.268;2.5709;4.2256;8.8478;0.1774;-0.9761;-1.0094;-0.2387;-0.2548;0.1652;0.3646;131.0;20.48;-15.19;-20.15;230.9;-56.1;-73.85;0.0;1009.65;55.193;37.51003;127.05864;67.33;NaN;;1.22;10.758418;259.2;31 / 44;86559;2020-09-25 14:52:24:531
3.7909;7.4547;0.2928;3.9105;8.9857;0.3688;1.2141;-0.2463;-0.4668;1.0987;1.1252;-0.3876;306.0;29.76;-18.03;-13.68;210.56;-63.14;-79.87;0.0;1009.66;56.347;37.51003;127.05864;67.33;NaN;;1.22;10.758418;259.2;31 / 44;87059;2020-09-25 14:52:25:031
3.6376;8.0201;0.9779;4.7721;8.3875;1.7455;-1.0149;0.3483;0.0078;1.1097;0.5274;-0.2701;67.0;18.1;-12.6;-28.02;251.68;-59.14;-65.78;0.0;1009.65;48.936;37.510025;127.05862;67.82;NaN;;2.08;9.831846;261.8;30 / 44;87560;2020-09-25 14:52:25:532
5.99;9.7484;1.3528;4.4985;8.6114;1.3331;1.0289;-0.3629;0.6747;1.2165;0.6782;-0.9464;73.0;22.6;-12.79;-23.19;235.23;-61.42;-73.49;0.0;1009.65;51.552;37.510025;127.05862;67.82;NaN;;2.08;9.831846;261.8;30 / 44;88060;2020-09-25 14:52:26:032
5.8594;10.703;1.8917;4.3426;8.6533;1.56;0.1382;-0.1729;-1.2206;-0.9543;-1.1307;-0.5223;66.0;17.99;-9.95;-29.34;251.76;-61.93;-70.24;0.0;1009.65;48.501;37.510014;127.05859;68.81;NaN;;2.42;8.866606;254.2;31 / 44;88559;2020-09-25 14:52:26:531
2.2961;7.8464;1.7959;4.2318;8.7635;1.2093;0.0803;0.032;-0.306;-0.7557;-0.813;0.1216;58.0;13.78;-7.54;-29.49;255.01;-63.33;-74.05;0.0;1009.67;56.571;37.510014;127.05859;68.81;NaN;;2.42;8.866606;254.2;31 / 44;89059;2020-09-25 14:52:27:031
4.5323;8.0895;0.7359;3.8438;8.9661;1.0027;0.2181;-0.8309;0.2079;-0.3053;-0.2962;-0.1029;46.0;19.68;-11.45;-21.63;238.19;-63.19;-73.7;0.0;1009.65;51.436;37.51;127.05857;69.0;NaN;;1.85;8.241903;258.0;30 / 44;89559;2020-09-25 14:52:27:531
1.2601;9.098;1.3156;4.1633;8.7831;1.3018;-1.0519;-0.6297;-0.5187;-0.0364;-0.3345;-0.3357;43.0;8.73;-5.26;-29.92;266.53;-63.59;-72.64;0.0;1009.62;49.107;37.51;127.05857;69.0;NaN;;1.85;8.241903;258.0;30 / 44;90059;2020-09-25 14:52:28:031
3.1429;9.0956;2.9685;3.4337;9.163;0.647;1.8471;-0.5883;-3.0579;-1.4331;-1.7241;0.1688;51.0;14.46;-5.49;-24.53;248.68;-57.89;-79.79;0.0;1009.61;49.434;37.50999;127.05853;68.57;NaN;;2.0;8.052757;261.1;30 / 44;90560;2020-09-25 14:52:28:532
5.5049;8.4201;2.602;4.397;8.6921;1.1333;0.9956;0.8956;1.4527;0.1545;0.8103;-0.0411;44.0;-3.28;-3.51;-31.01;284.52;-62.42;-75.55;0.0;1009.6;51.032;37.50999;127.05853;68.57;NaN;;2.0;8.052757;261.1;30 / 44;91060;2020-09-25 14:52:29:032
8.6166;5.2521;0.3311;5.5056;8.1109;0.2691;-4.267;-0.2684;-1.6275;-1.3066;-1.6705;1.9166;53.0;-34.58;-1.5;-31.75;337.28;-59.11;-67.09;0.0;1009.58;60.489;37.509987;127.05851;66.45;NaN;;1.51;7.96183;266.0;31 / 44;91559;2020-09-25 14:52:29:531
2.2255;10.2347;2.4391;3.2558;9.1998;0.9667;1.2431;-0.3055;0.368;-1.1805;-1.4712;-0.1587;40.0;-17.37;-8.68;-27.88;311.76;-69.74;-73.46;0.0;1009.54;55.192;37.509987;127.05851;66.45;NaN;;1.51;7.96183;266.0;31 / 44;92059;2020-09-25 14:52:30:031
5.0042;9.8011;2.5756;5.3574;8.1288;1.1794;0.7542;2.0104;-3.5019;0.2695;-0.5079;-1.3923;33.0;-13.98;-13.74;-35.48;289.39;-59.29;-77.76;0.0;1009.51;54.656;37.50999;127.05849;66.51;NaN;;1.73;7.599604;290.4;32 / 44;92560;2020-09-25 14:52:30:532
3.3549;8.7555;1.4785;4.1513;8.7156;1.7249;-0.58;-0.532;0.2979;0.4512;0.2062;0.4182;32.0;-23.25;-4.45;-33.61;321.75;-62.72;-67.44;0.0;1009.52;50.265;37.50999;127.05849;66.51;NaN;;1.73;7.599604;290.4;32 / 44;93059;2020-09-25 14:52:31:031
7.7806;11.3103;2.4223;5.4492;8.1203;0.7327;-0.2614;0.4096;1.8442;1.2645;1.0532;0.0546;37.0;-32.55;-13.5;-30.25;320.13;-61.97;-78.85;0.0;1009.52;50.078;37.50999;127.05847;65.08;NaN;;1.18;7.482901;291.7;32 / 44;93559;2020-09-25 14:52:31:531
2.4399;6.6403;1.4522;3.7434;9.048;0.5398;-0.9147;-0.7094;-1.7307;-0.7939;-1.0472;0.9843;31.0;-24.48;-31.14;-38.65;279.08;-64.58;-93.1;0.0;1009.52;56.292;37.50999;127.05847;65.08;NaN;;1.18;7.482901;291.7;32 / 44;94060;2020-09-25 14:52:32:032
1.7667;13.5704;-0.3648;4.5199;8.645;1.0027;-0.7617;1.8157;-0.0895;-1.4226;-0.7847;-0.1447;27.0;-30.91;-38.86;-27.26;288.66;-60.81;-88.18;0.0;1009.53;59.138;37.51;127.05846;64.36;NaN;;1.21;7.014372;314.5;32 / 44;94559;2020-09-25 14:52:32:531
5.0977;11.3749;2.063;4.3035;8.7146;1.3063;-0.4827;-0.4224;-0.2717;-0.1205;-0.5558;-0.3839;22.0;-25.5;-38.44;-23.09;312.98;-64.21;-70.96;0.0;1009.53;53.062;37.51;127.05846;64.36;NaN;;1.21;7.014372;314.5;32 / 44;95059;2020-09-25 14:52:33:031
3.882;10.794;0.8114;3.9621;8.9441;0.689;-1.2247;-0.6149;-0.5881;-0.3488;-0.1294;0.3254;22.0;-24.93;-32.84;-14.02;318.74;-60.3;-74.6;0.0;1009.54;55.143;37.51001;127.05843;64.65;NaN;;1.7;6.779544;312.5;32 / 44;95560;2020-09-25 14:52:33:532
-1.3833;12.7966;0.034;4.8971;8.4385;0.9903;2.4763;1.0661;1.7851;0.7502;0.2663;-0.5031;22.0;-26.24;-26.46;-14.87;321.66;-59.28;-77.41;0.0;1009.53;55.996;37.51001;127.05843;64.65;NaN;;1.7;6.779544;312.5;32 / 44;96059;2020-09-25 14:52:34:031
2.6519;9.7077;0.1382;4.0438;8.8435;1.269;0.1631;0.3897;-1.0395;-0.328;-0.0081;0.4518;23.0;-24.19;-29.78;-22.93;298.71;-65.42;-84.45;0.0;1009.52;53.491;37.510017;127.05842;64.92;NaN;;2.31;6.747319;312.5;30 / 43;96559;2020-09-25 14:52:34:531
7.4368;10.4862;1.3695;4.0295;8.8856;0.9894;0.9342;-0.9292;-0.7625;-0.6923;-0.5342;-0.1217;31.0;-24.53;-29.56;-30.25;304.27;-64.97;-76.2;0.0;1009.52;52.394;37.510017;127.05842;64.92;NaN;;2.31;6.747319;312.5;30 / 43;97060;2020-09-25 14:52:35:032
3.4783;9.3232;2.614;4.2437;8.7132;1.497;-0.3353;-0.5914;-0.5912;-0.1569;-0.5467;0.2029;20.0;-25.08;-27.8;-27.65;323.31;-64.05;-63.93;0.0;1009.54;51.251;37.510033;127.0584;63.88;NaN;;1.99;6.713825;331.1;31 / 44;97559;2020-09-25 14:52:35:531
3.531;9.6083;1.8318;4.8894;8.4814;0.5744;0.4782;0.1832;-0.0158;0.4439;-0.0081;-0.2625;23.0;-29.72;-30.93;-19.63;316.29;-58.24;-75.8;0.0;1009.55;57.537;37.510033;127.0584;63.88;NaN;;1.99;6.713825;331.1;31 / 44;98059;2020-09-25 14:52:36:031
2.9166;6.4894;-0.1684;4.8492;8.5207;0.2308;-1.0502;-0.6521;-0.1197;0.6414;0.618;-0.194;32.0;-20.96;-29.07;-13.51;288.91;-60.33;-87.28;0.0;1009.53;60.566;37.51005;127.05839;62.54;NaN;;2.11;7.555383;332.4;29 / 44;98560;2020-09-25 14:52:36:532
3.6999;9.764;0.8593;4.1846;8.8449;0.6546;-0.2308;-0.7384;0.1194;-0.5427;-0.4855;-0.1374;28.0;-14.32;-25.9;-9.71;288.89;-64.41;-81.11;0.0;1009.49;51.728;37.51005;127.05839;62.54;NaN;;2.11;7.555383;332.4;29 / 44;99060;2020-09-25 14:52:37:032
3.4687;8.153;1.3899;4.1108;8.8325;1.1215;-0.1844;-0.3972;0.1043;0.1255;0.3672;-0.5217;18.0;-16.75;-19.79;-19.19;307.38;-64.25;-74.74;0.0;1009.54;51.223;37.51008;127.058365;62.43;NaN;;2.59;7.119929;333.5;30 / 43;99559;2020-09-25 14:52:37:531
4.5335;8.2836;-0.2151;3.9789;8.934;0.7223;0.1451;-0.5421;0.1664;-0.1286;-0.8681;-0.187;13.0;-27.16;-16.3;-11.64;348.02;-61.3;-73.47;0.0;1009.54;56.912;37.51008;127.058365;62.43;NaN;;2.59;7.119929;333.5;30 / 43;100059;2020-09-25 14:52:38:031
5.3384;9.1507;1.6809;4.6806;8.5833;0.7673;-0.2926;0.8044;0.2835;0.2196;0.5664;0.0775;12.0;-34.18;-16.36;-14.52;334.23;-62.29;-84.24;0.0;1009.51;57.29;37.5101;127.05835;62.09;NaN;;1.93;7.357004;338.5;30 / 44;100559;2020-09-25 14:52:38:531
5.1108;8.6477;1.0174;4.2542;8.7818;0.9757;-0.6496;-0.6937;-0.1574;0.1199;0.3503;0.2065;10.0;-25.84;-20.99;-16.56;321.09;-65.11;-82.35;0.0;1009.54;52.586;37.5101;127.05835;62.09;NaN;;1.93;7.357004;338.5;30 / 44;101059;2020-09-25 14:52:39:031
4.2161;7.9769;1.1827;4.48;8.6916;0.7459;-0.958;-0.2437;0.1234;0.0796;0.3296;-0.1791;9.0;-29.46;-21.53;-12.11;334.61;-63.19;-82.54;0.0;1009.53;52.571;37.510128;127.058334;61.37;NaN;;2.12;8.033931;339.5;31 / 44;101560;2020-09-25 14:52:39:532
4.5599;5.9216;-2.038;4.696;8.6082;0.1249;-0.1775;-0.4954;0.703;0.1782;0.7638;-0.576;13.0;-28.55;-22.38;-8.09;341.48;-60.17;-84.06;0.0;1009.54;57.649;37.510128;127.058334;61.37;NaN;;2.12;8.033931;339.5;31 / 44;102059;2020-09-25 14:52:40:031
6.6907;12.2145;0.6676;4.4521;8.6667;1.1126;-0.6754;-0.2151;-0.1657;-0.2558;0.0865;0.5815;10.0;-28.19;-20.75;-10.06;332.69;-65.71;-84.99;0.0;1009.52;61.111;37.510147;127.05833;61.01;NaN;;1.9;9.050016;343.5;31 / 44;102559;2020-09-25 14:52:40:531
2.7046;7.3661;1.2701;4.1476;8.8862;0.0518;1.6832;-0.1054;-1.1816;-1.1051;-1.5349;-0.2585;12.0;-26.49;-23.2;-6.98;334.36;-64.98;-89.28;0.0;1009.53;51.886;37.510147;127.05833;61.01;NaN;;1.9;9.050016;343.5;31 / 44;103059;2020-09-25 14:52:41:031
5.5049;10.3461;0.4832;4.832;8.4572;1.139;-0.6629;-0.0463;-0.8321;0.3308;-0.4939;-0.558;11.0;-27.15;-20.07;-12.64;332.89;-59.83;-79.13;0.0;1009.53;55.391;37.510162;127.05832;60.89;NaN;;1.51;10.035638;341.0;31 / 44;103559;2020-09-25 14:52:41:531
3.8484;8.9423;0.6724;4.6171;8.5882;1.0465;-0.0122;1.3202;0.3225;0.5007;-0.0938;-0.2105;12.0;-26.34;-19.65;-8.04;351.71;-61.13;-77.23;0.0;1009.52;57.259;37.510162;127.05832;60.89;NaN;;1.51;10.035638;341.0;31 / 44;104059;2020-09-25 14:52:42:031
4.3215;7.729;1.0833;4.7789;8.5528;0.4266;0.0326;0.7967;0.4202;-0.0694;-0.8306;0.1347;12.0;-28.17;-17.35;0.37;21.1;-60.98;-77.54;0.0;1009.55;57.291;37.51018;127.05831;62.12;NaN;;1.21;10.838244;335.3;31 / 44;104559;2020-09-25 14:52:42:531
5.8618;9.4142;1.1635;4.0059;8.9409;0.4286;0.9502;-0.321;-1.0108;-0.5326;-1.2808;0.0591;15.0;-21.53;-12.16;-5.4;350.36;-65.74;-83.89;0.0;1009.49;58.174;37.51018;127.05831;62.12;NaN;;1.21;10.838244;335.3;31 / 44;105059;2020-09-25 14:52:43:031
7.0164;9.6298;-0.481;3.9973;8.8951;1.0339;-0.8886;-1.4584;-1.1028;-0.1622;-0.7106;-0.1018;15.0;-23.79;-16.22;-13.23;339.18;-65.1;-75.5;0.0;1009.45;58.456;37.5102;127.0583;62.0;NaN;;2.32;9.701451;333.1;31 / 44;105559;2020-09-25 14:52:43:531
2.9262;9.0082;0.3191;4.2484;8.7731;1.0742;0.1825;-0.1577;0.3701;0.128;1.0791;-0.0385;13.0;-28.17;-15.82;-10.72;349.0;-63.46;-75.81;0.0;1009.43;58.294;37.5102;127.0583;62.0;NaN;;2.32;9.701451;333.1;31 / 44;106059;2020-09-25 14:52:44:031
5.421;11.5043;0.8473;4.5178;8.6881;0.5254;-1.4437;-1.9518;0.3679;0.4127;1.5514;-0.3674;15.0;-29.89;-17.58;-7.9;346.04;-59.16;-82.97;0.0;1009.42;55.622;37.510223;127.05828;61.33;NaN;;2.53;9.585852;333.3;31 / 44;106559;2020-09-25 14:52:44:531
4.833;8.9818;0.6185;4.6465;8.5758;1.0175;-0.0709;1.3027;0.4991;-0.0645;-0.0098;-0.049;18.0;-31.54;-19.44;-10.55;353.37;-64.64;-82.1;0.0;1009.42;57.522;37.510223;127.05828;61.33;NaN;;2.53;9.585852;333.3;31 / 44;107059;2020-09-25 14:52:45:031
3.846;9.2921;2.1373;4.0182;8.8858;1.0327;-0.5069;-0.8207;-0.2885;-0.7579;-0.3604;0.7286;22.0;-24.04;-14.03;-3.86;355.31;-63.91;-83.57;0.0;1009.41;54.34;37.510242;127.05827;60.1;NaN;;1.56;9.548829;337.8;30 / 44;107559;2020-09-25 14:52:45:531
4.9324;8.5351;1.2965;4.1981;8.8002;1.0503;0.9158;0.1259;0.2812;-0.6886;-0.2289;0.5579;19.0;-18.98;-11.65;-4.57;0.66;-65.5;-74.82;0.0;1009.41;59.845;37.510242;127.05827;60.1;NaN;;1.56;9.548829;337.8;30 / 44;108059;2020-09-25 14:52:46:031
5.1851;10.0718;1.1384;4.6616;8.5569;1.1042;0.1173;1.0557;0.5891;-0.1236;-0.1735;0.516;20.0;-27.45;-7.98;0.21;18.12;-60.76;-76.67;0.0;1009.42;53.744;37.510265;127.058266;59.85;NaN;;1.68;9.974683;343.1;31 / 44;108559;2020-09-25 14:52:46:531
2.6207;9.6298;1.5504;4.6195;8.5639;1.2205;-0.2082;-0.0315;0.2244;0.2254;0.2234;0.2131;20.0;-31.4;-9.29;-4.63;7.34;-61.39;-75.39;0.0;1009.44;55.253;37.510265;127.058266;59.85;NaN;;1.68;9.974683;343.1;31 / 44;109059;2020-09-25 14:52:47:031
6.5577;10.3545;0.6569;4.7041;8.5367;1.0801;-0.9977;-0.5682;0.6962;0.256;0.4398;-0.0487;30.0;-40.21;-10.45;-0.56;15.27;-60.52;-77.07;0.0;1009.44;52.274;37.510284;127.05825;59.34;NaN;;1.98;9.454695;333.4;31 / 44;109559;2020-09-25 14:52:47:531
3.0387;8.6237;1.2857;4.6896;8.5572;0.9761;0.6404;0.4257;-0.0847;-0.6783;-0.2621;0.039;35.0;-45.12;-17.4;-0.88;13.43;-59.47;-79.68;0.0;1009.46;54.448;37.510284;127.05825;59.34;NaN;;1.98;9.454695;333.4;31 / 44;110059;2020-09-25 14:52:48:031
3.5502;8.7758;1.1671;4.4924;8.6626;0.9739;0.5555;0.0394;0.6027;0.1855;0.2305;-0.1615;28.0;-42.01;-24.81;0.97;22.08;-62.05;-77.77;0.0;1009.44;53.608;37.510303;127.05823;59.49;NaN;;2.26;8.937832;333.1;30 / 44;110560;2020-09-25 14:52:48:532
5.8343;9.2597;1.6139;4.2778;8.6279;1.8523;0.344;0.2434;-0.2784;-0.0651;-0.1099;0.293;22.0;-39.04;-26.78;-1.98;35.22;-61.62;-66.59;0.0;1009.45;56.881;37.510303;127.05823;59.49;NaN;;2.26;8.937832;333.1;30 / 44;111060;2020-09-25 14:52:49:032
1.2517;7.6679;2.5792;4.9537;8.3421;1.4287;-1.3603;0.1202;0.0593;0.6314;0.3682;0.0184;29.0;-29.86;-23.42;5.04;40.38;-62.73;-75.97;0.0;1009.48;55.833;37.51032;127.05821;58.56;NaN;;1.53;9.329177;337.9;33 / 44;111560;2020-09-25 14:52:49:532
1.9883;8.3315;1.9205;4.7211;8.4945;1.3132;-0.353;0.1088;-0.3093;-0.0096;0.022;-0.0368;30.0;-22.74;-9.58;-1.36;18.66;-60.34;-75.15;0.0;1009.5;61.328;37.51032;127.05821;58.56;NaN;;1.53;9.329177;337.9;33 / 44;112059;2020-09-25 14:52:50:031
5.421;10.5629;2.5122;4.12;8.7638;1.5464;0.9135;-0.1365;-1.5444;-0.48;-0.5984;0.4397;29.0;-22.62;-11.39;-3.43;18.34;-63.08;-70.02;0.0;1009.48;58.218;37.510338;127.058205;57.83;NaN;;1.07;10.138873;336.3;33 / 44;112559;2020-09-25 14:52:50:531
4.6293;10.1281;2.705;4.5139;8.5034;1.8672;0.9362;0.6243;-0.0621;0.3524;0.7365;0.4801;37.0;-27.64;-7.77;-6.35;8.37;-62.89;-71.51;0.0;1009.54;60.653;37.510338;127.058205;57.83;NaN;;1.07;10.138873;336.3;33 / 44;113059;2020-09-25 14:52:51:031
1.12;6.2354;4.4812;5.4877;7.8364;2.1556;-0.8663;0.1901;-0.3575;0.5909;0.4868;0.0645;51.0;-34.18;-4.1;-15.35;360.0;-52.76;-66.2;0.0;1009.71;68.347;37.51035;127.0582;57.53;NaN;;1.16;10.588629;335.4;33 / 44;113559;2020-09-25 14:52:51:531
3.8305;6.9625;-0.4175;4.8449;8.4074;1.4189;-0.8353;-0.1799;1.2742;0.7939;0.6142;0.347;38.0;-28.24;-12.21;-9.05;357.69;-59.02;-73.68;0.0;1009.61;63.138;37.51035;127.0582;57.53;NaN;;1.16;10.588629;335.4;33 / 44;114059;2020-09-25 14:52:52:031
1.9009;5.2557;1.8486;4.6972;8.3965;1.8986;-0.9872;-0.8938;0.7363;-0.4331;0.2083;-0.4672;46.0;-24.77;-12.74;-17.97;335.14;-58.75;-70.44;0.0;1009.52;58.93;37.510372;127.05819;57.56;NaN;;2.43;9.217877;332.5;33 / 44;114559;2020-09-25 14:52:52:531
5.2246;7.2619;2.3984;5.2423;7.5014;3.5239;-2.2208;0.1673;1.8325;0.0905;0.9135;0.8563;95.0;-32.21;0.74;-25.56;353.37;-49.9;-56.09;0.0;1009.53;63.689;37.510372;127.05819;57.56;NaN;;2.43;9.217877;332.5;33 / 44;115059;2020-09-25 14:52:53:031
5.6953;9.8909;3.1254;3.9804;8.7827;1.7866;1.1348;-0.2201;-1.1612;-0.0516;-0.179;-0.1605;54.0;-25.59;-12.71;-21.32;335.32;-61.32;-68.47;0.0;1009.67;65.209;37.51039;127.05818;57.82;NaN;;1.61;8.692607;332.7;33 / 44;115559;2020-09-25 14:52:53:531
6.275;7.5002;2.3014;5.6398;7.6967;2.2637;-1.4109;-0.0929;-0.5191;0.7463;-0.2934;0.6943;31.0;-35.84;-5.91;-20.9;348.02;-51.71;-68.13;0.0;1009.57;58.108;37.51039;127.05818;57.82;NaN;;1.61;8.692607;332.7;33 / 44;116059;2020-09-25 14:52:54:031
7.541;8.9519;-3.643;4.0736;8.8348;1.2338;-0.4687;-0.3149;0.4926;-0.3701;0.8768;-0.4196;52.0;-26.68;-12.18;-24.52;326.8;-64.28;-73.15;0.0;1009.56;58.109;37.51042;127.05817;57.67;NaN;;1.99;8.150605;335.3;33 / 44;116559;2020-09-25 14:52:54:531
4.4197;8.9591;1.209;4.4136;8.7175;0.8339;-0.8001;0.1453;-0.6763;0.2413;-1.392;0.2733;46.0;-27.19;-16.8;-19.78;327.9;-59.86;-71.33;0.0;1009.51;58.675;37.51042;127.05817;57.67;NaN;;1.99;8.150605;335.3;33 / 44;117060;2020-09-25 14:52:55:032
4.9156;9.2729;2.2319;5.3046;7.9566;2.1737;-0.2262;0.7429;0.8714;0.5702;-0.7273;0.6935;62.0;-40.73;-6.51;-4.67;29.46;-64.79;-58.06;0.0;1009.52;56.739;37.51045;127.05815;58.06;NaN;;2.72;7.621082;333.2;33 / 44;117560;2020-09-25 14:52:55:532
4.1802;5.4485;1.5049;4.968;8.3166;1.5244;0.9538;2.1617;0.2228;-0.0437;0.7805;0.1236;39.0;-41.71;-6.55;-12.69;354.51;-61.27;-77.2;0.0;1009.64;61.333;37.51045;127.05815;58.06;NaN;;2.72;7.621082;333.2;33 / 44;118059;2020-09-25 14:52:56:031
1.6661;5.5503;2.469;5.273;8.1716;1.2613;-1.7713;-0.7587;0.812;-0.2968;-0.354;-0.3349;34.0;-39.61;-10.54;-14.25;352.17;-56.55;-76.13;0.0;1009.64;58.592;37.51047;127.05814;59.22;NaN;;1.97;7.264664;334.9;33 / 44;118559;2020-09-25 14:52:56:531
4.7791;10.5617;2.16;5.0443;8.3537;0.9702;0.355;0.5656;0.7921;0.073;0.1284;-0.0386;34.0;-36.89;-13.33;-13.68;346.9;-59.27;-78.39;0.0;1009.53;57.045;37.51047;127.05814;59.22;NaN;;1.97;7.264664;334.9;33 / 44;119060;2020-09-25 14:52:57:032
2.1189;7.4967;0.8018;4.6799;8.4826;1.5213;0.3644;0.0072;0.3372;0.238;0.2728;-0.0723;34.0;-31.7;-18.94;-22.08;334.06;-59.88;-71.99;0.0;1009.49;54.287;37.5105;127.058136;59.59;NaN;;2.31;6.807002;347.0;33 / 44;119560;2020-09-25 14:52:57:532
0.8912;7.2499;2.3888;4.115;8.6635;2.0447;1.0407;0.5072;-0.3497;-0.83;-0.6127;-0.3138;35.0;-29.56;-14.14;-18.84;351.54;-62.06;-63.58;0.0;1009.45;56.179;37.5105;127.058136;59.59;NaN;;2.31;6.807002;347.0;33 / 44;120059;2020-09-25 14:52:58:031
0.46;4.4197;0.9958;5.9389;7.3769;2.5459;-0.1265;2.0339;0.4456;0.9382;-0.1884;0.2911;32.0;-40.64;-6.45;-21.39;354.13;-48.78;-66.8;0.0;1009.46;54.913;37.510525;127.05813;59.55;NaN;;2.72;6.385268;337.3;33 / 44;120560;2020-09-25 14:52:58:532
4.3239;9.2969;0.6425;3.4604;9.1111;1.0883;-0.0715;-0.5801;-1.2025;-1.065;-0.5293;1.1085;36.0;-34.6;-18.23;-20.73;342.49;-68.29;-72.54;0.0;1009.46;54.722;37.510525;127.05813;59.55;NaN;;2.72;6.385268;337.3;33 / 44;121059;2020-09-25 14:52:59:031
7.9878;7.4787;-0.6774;4.4242;8.7504;0.1641;1.5988;-0.6618;-1.9166;1.6286;2.619;-1.4314;41.0;-44.26;-17.44;-11.08;351.5;-50.99;-80.58;0.0;1009.52;56.413;37.51055;127.05811;59.04;NaN;;2.58;5.848579;334.9;33 / 44;121559;2020-09-25 14:52:59:531
3.5945;8.4596;2.2115;5.8217;7.5946;2.1446;0.9265;1.2308;0.911;-0.1636;-1.322;-0.1274;62.0;-44.72;-11.57;-12.07;15.02;-64.1;-63.18;0.0;1009.57;54.67;37.51055;127.05811;59.04;NaN;;2.58;5.848579;334.9;33 / 44;122060;2020-09-25 14:53:00:032
6.0618;6.2187;1.2222;4.4437;8.7368;-0.3033;0.1098;-0.2279;2.5826;0.7566;-0.8649;-0.8607;41.0;-34.38;-16.68;-13.82;341.49;-56.06;-78.36;0.0;1009.58;51.391;37.510574;127.058105;59.31;NaN;;2.5;5.539622;336.6;33 / 44;122559;2020-09-25 14:53:00:531
0.9187;4.9035;0.791;3.7756;8.7451;2.3319;1.501;1.1794;-0.6736;-0.1303;-1.5629;0.0808;25.0;-39.52;-18.42;-13.03;19.39;-63.09;-58.3;0.0;1009.61;50.218;37.510574;127.058105;59.31;NaN;;2.5;5.539622;336.6;33 / 44;123062;2020-09-25 14:53:01:034
7.3207;9.3364;0.3922;5.203;8.239;1.1041;0.0695;-1.588;1.4105;2.1502;1.2796;-0.4078;32.0;-31.52;-17.26;-6.51;359.36;-57.15;-78.02;0.0;1009.66;56.604;37.5106;127.0581;59.11;NaN;;2.55;5.160451;342.1;31 / 44;123559;2020-09-25 14:53:01:531
5.3911;9.8322;4.2082;6.5154;7.2659;0.9627;-3.266;1.512;1.2961;1.0144;0.2028;1.6362;49.0;-43.44;3.08;-4.84;10.44;-58.46;-74.07;0.0;1009.6;53.821;37.5106;127.0581;59.11;NaN;;2.55;5.160451;342.1;31 / 44;124059;2020-09-25 14:53:02:031
1.4613;2.0865;-0.5672;4.4091;8.7546;0.2942;-0.4907;-0.1456;-0.4891;-2.5881;-2.0307;0.0384;42.0;-24.11;-16.93;-17.53;291.2;-64.88;-105.8;0.0;1009.57;57.915;37.51062;127.05809;58.32;NaN;;2.12;5.125395;351.3;31 / 44;124559;2020-09-25 14:53:02:531
3.4484;1.4876;-2.1902;4.1779;8.8713;0.1227;0.7011;-0.7142;0.1147;0.9108;-0.9352;-1.4798;43.0;-15.53;-26.84;-15.17;277.63;-59.15;-81.38;0.0;1009.5;57.968;37.51062;127.05809;58.32;NaN;;2.12;5.125395;351.3;31 / 44;125060;2020-09-25 14:53:03:032
1.6314;-0.8001;-0.9062;6.9956;6.7464;1.3107;-2.1002;-3.1899;-1.3893;2.6221;2.6939;-2.2672;48.0;-33.1;-7.32;-21.44;331.33;-63.86;-81.46;0.0;1009.49;64.133;37.51064;127.05808;58.03;NaN;;2.25;4.45704;336.1;31 / 44;125559;2020-09-25 14:53:03:531
-4.1884;5.9456;-1.1361;1.8923;9.6208;0.1704;1.7097;-0.4204;-1.0338;-1.0394;-0.7147;3.1839;6.0;-7.0;-27.43;-14.45;282.04;-78.83;-84.85;0.0;1009.52;55.329;37.51064;127.05808;58.03;NaN;;2.25;4.45704;336.1;31 / 44;126059;2020-09-25 14:53:04:031
3.0867;10.4155;0.6126;5.052;8.2988;1.3333;0.7191;0.2748;0.6207;1.1334;0.8665;-1.7543;24.0;-23.22;-19.52;-17.51;309.84;-50.86;-72.57;0.0;1009.55;54.791;37.510654;127.05807;57.59;NaN;;2.38;4.09796;324.4;31 / 44;126560;2020-09-25 14:53:04:532
2.1105;7.965;1.245;4.5008;8.5279;1.7855;-0.7006;0.3604;-1.4081;0.2557;-0.5363;-0.1275;21.0;-26.71;-10.6;-11.94;352.17;-62.58;-71.66;0.0;1009.55;55.666;37.510654;127.05807;57.59;NaN;;2.38;4.09796;324.4;31 / 44;127059;2020-09-25 14:53:05:031
4.2545;10.176;0.4604;3.7796;9.0243;0.6684;-0.3138;-0.4219;-0.6763;-1.1825;-0.2661;1.0984;23.0;-19.96;-14.05;-4.14;357.21;-57.88;-80.03;0.0;1009.55;50.771;37.510677;127.058044;57.28;NaN;;2.36;3.790092;334.3;31 / 44;127560;2020-09-25 14:53:05:532
4.4102;9.1974;2.0271;5.5816;8.0198;0.8362;0.3012;1.3478;-0.5551;0.8227;-0.3011;-0.2458;36.0;-26.37;-7.77;-5.1;356.33;-54.86;-81.48;0.0;1009.54;50.82;37.510677;127.058044;57.28;NaN;;2.36;3.790092;334.3;31 / 44;128060;2020-09-25 14:53:06:032
1.5092;0.751;0.2017;4.5649;8.5924;1.226;0.9389;1.73;-1.1475;0.0662;1.1512;0.9487;36.0;-23.71;-7.25;-8.35;355.42;-61.18;-74.97;0.0;1009.52;55.569;37.510696;127.05804;57.22;NaN;;2.45;3.790092;338.7;31 / 44;128559;2020-09-25 14:53:06:531
2.792;6.015;1.2234;3.7275;9.0389;0.7581;-0.7306;-1.0403;-0.445;-0.3795;-0.3428;0.478;38.0;-25.55;-9.43;-7.27;355.49;-67.18;-78.5;0.0;1009.5;60.203;37.510696;127.05804;57.22;NaN;;2.45;3.790092;338.7;31 / 44;129059;2020-09-25 14:53:07:031
2.9118;9.219;2.075;4.5325;8.6035;1.2675;-0.3997;0.2111;-0.282;-0.0196;-0.1439;0.1265;35.0;-28.94;-9.62;-9.49;3.67;-61.05;-72.76;0.0;1009.5;58.058;37.510715;127.05803;56.9;NaN;;2.22;3.790092;340.5;29 / 44;129559;2020-09-25 14:53:07:531
5.9804;10.2311;0.8138;4.5554;8.6362;0.9138;0.1029;0.1036;0.6276;0.2719;0.5035;0.067;39.0;-28.38;-11.23;-5.04;359.53;-61.97;-80.2;0.0;1009.49;53.994;37.510715;127.05803;56.9;NaN;;2.22;3.790092;340.5;29 / 44;130059;2020-09-25 14:53:08:031
5.0989;10.9402;1.9169;4.6819;8.5697;0.9002;-0.5801;-0.0796;-0.0331;0.3384;0.327;0.2325;39.0;-25.39;-11.2;-7.13;352.89;-60.91;-79.12;0.0;1009.48;55.279;37.51074;127.05802;56.84;NaN;;2.38;3.790092;339.9;29 / 44;130559;2020-09-25 14:53:08:531
4.288;7.7542;-0.3468;4.2087;8.8009;1.001;-0.3142;-0.4042;-0.1075;-0.2633;0.2622;0.0338;36.0;-19.59;-14.35;-5.36;358.9;-63.82;-76.62;0.0;1009.49;53.01;37.51074;127.05802;56.84;NaN;;2.38;3.790092;339.9;29 / 44;131060;2020-09-25 14:53:09:032
1.3056;7.0511;-0.263;4.2151;8.7803;1.1445;0.2927;-0.3109;-0.3091;-0.5332;-0.3954;0.0752;33.0;-23.69;-12.38;-7.82;358.46;-61.15;-72.56;0.0;1009.49;52.452;37.51076;127.058014;56.88;NaN;;2.42;3.790092;333.7;25 / 44;131559;2020-09-25 14:53:09:531
6.5194;8.1913;2.7325;4.3577;8.6406;1.5876;0.9466;1.729;0.4125;-0.0589;-0.2986;0.4299;27.0;-26.49;-9.25;-5.3;12.62;-61.77;-69.98;0.0;1009.47;54.107;37.51076;127.058014;56.88;NaN;;2.42;3.790092;333.7;25 / 44;132060;2020-09-25 14:53:10:032
4.9132;9.9412;1.9456;4.743;8.5651;0.5591;-0.2194;-0.0528;0.5477;0.2811;0.4387;0.0069;40.0;-26.03;-10.6;-2.19;3.48;-60.86;-83.28;0.0;1009.46;58.924;37.510784;127.058;56.61;NaN;;2.61;3.790092;333.1;26 / 44;132560;2020-09-25 14:53:10:532
3.9347;6.5672;-1.2272;4.5115;8.6724;0.7788;0.658;-0.2358;-0.6396;-0.3969;-0.0282;-0.2523;50.0;-23.89;-14.94;-9.34;338.25;-61.4;-82.7;0.0;1009.46;54.356;37.510784;127.058;56.61;NaN;;2.61;3.790092;333.1;26 / 44;133059;2020-09-25 14:53:11:031
2.8615;8.4009;0.9012;4.1502;8.759;1.4917;0.3098;-0.5008;0.2977;-0.1263;-0.4811;-0.0864;37.0;-21.37;-15.06;-8.16;0.72;-62.66;-68.73;0.0;1009.45;51.036;37.510803;127.05798;56.27;NaN;;2.61;3.790092;335.6;25 / 44;133559;2020-09-25 14:53:11:531
3.9897;9.1915;1.3683;4.8326;8.4799;0.9526;-0.0695;0.1122;0.0769;-0.2423;0.0567;-0.3066;48.0;-25.79;-17.54;-7.02;359.09;-55.77;-75.34;0.0;1009.45;53.773;37.510803;127.05798;56.27;NaN;;2.61;3.790092;335.6;25 / 44;134061;2020-09-25 14:53:12:033
3.5837;9.0669;0.8521;4.4085;8.6324;1.4887;0.3576;0.5159;-0.6123;0.049;-0.4038;0.1242;41.0;-24.56;-19.03;-9.5;354.25;-61.67;-71.34;0.0;1009.37;51.274;37.510826;127.057976;56.22;NaN;;2.44;3.790092;337.0;25 / 44;134559;2020-09-25 14:53:12:531
3.9107;9.0058;1.5049;4.6933;8.5368;1.1255;0.0482;0.5512;-0.509;0.2331;0.2816;-0.2686;44.0;-21.29;-15.38;-6.74;340.44;-63.54;-83.34;0.0;1009.35;51.906;37.510826;127.057976;56.22;NaN;;2.44;3.790092;337.0;25 / 44;135059;2020-09-25 14:53:13:031
5.1815;8.91;0.2544;4.503;8.6571;0.9738;-1.6348;-0.4287;-0.3635;-0.0977;0.1658;0.5142;47.0;-21.27;-14.78;-7.43;347.96;-63.02;-78.63;0.0;1009.41;49.678;37.51085;127.05797;56.23;NaN;;1.8;3.790092;346.3;25 / 44;135559;2020-09-25 14:53:13:531
6.1145;8.7076;2.1672;4.8196;8.3858;1.6187;0.3437;1.0945;0.4818;-0.1157;-0.66;0.7859;41.0;-28.77;-15.36;-7.25;2.67;-65.62;-74.55;0.0;1009.44;50.361;37.51085;127.05797;56.23;NaN;;1.8;3.790092;346.3;25 / 44;136060;2020-09-25 14:53:14:032
6.614;9.0298;0.2724;4.1248;8.8924;0.2858;1.0702;-0.0869;0.9534;-0.7139;-0.8352;-0.2439;44.0;-29.0;-22.41;-0.62;358.23;-64.3;-89.04;0.0;1009.46;54.039;37.510868;127.05797;55.73;NaN;;2.56;3.790092;342.7;23 / 44;136559;2020-09-25 14:53:14:531
5.4234;9.1411;1.4845;5.0949;8.292;1.2063;-0.1096;1.1545;0.0389;0.294;-0.3939;-0.0606;42.0;-29.33;-17.2;-1.09;20.86;-57.73;-76.68;0.0;1009.49;50.92;37.510868;127.05797;55.73;NaN;;2.56;3.790092;342.7;23 / 44;137059;2020-09-25 14:53:15:031
2.5213;8.71;0.7647;4.9699;8.4187;0.7717;0.9847;1.4512;0.8688;0.546;0.7613;-0.362;52.0;-34.06;-19.17;-3.24;8.98;-59.21;-79.78;0.0;1009.49;54.988;37.510887;127.05795;56.23;NaN;;2.17;3.790092;335.0;23 / 43;137559;2020-09-25 14:53:15:531
9.1316;11.9966;2.178;4.4144;8.7084;0.9203;-0.2704;0.5411;-0.2709;-0.7355;-1.3091;0.3395;44.0;-32.51;-19.01;-0.36;18.65;-62.62;-78.22;0.0;1009.48;60.421;37.510887;127.05795;56.23;NaN;;2.17;3.790092;335.0;23 / 43;138060;2020-09-25 14:53:16:032
9.6143;13.1739;1.3875;4.6615;8.5701;0.9972;-0.191;0.9987;0.5292;0.333;0.4093;-0.1718;35.0;-30.65;-17.07;-3.5;12.71;-64.43;-74.12;0.0;1009.46;54.198;37.510906;127.057945;55.51;NaN;;2.73;3.790092;332.8;22 / 43;138560;2020-09-25 14:53:16:532
3.9107;7.6691;2.2678;4.1603;8.7975;1.2107;1.1211;0.4167;0.4342;-0.504;-0.8959;-0.1435;40.0;-28.6;-18.68;-5.71;359.01;-63.27;-78.91;0.0;1009.46;55.548;37.510906;127.057945;55.51;NaN;;2.73;3.790092;332.8;22 / 43;139059;2020-09-25 14:53:17:031
4.9276;8.9854;0.8222;4.4224;8.6872;1.07;0.1378;-0.2336;0.3656;-0.019;-0.3919;-0.3079;33.0;-29.43;-15.42;-5.51;2.52;-61.32;-76.71;0.0;1009.48;54.818;37.51093;127.05793;54.65;NaN;;2.56;3.790092;337.6;21 / 43;139559;2020-09-25 14:53:17:531
6.4331;11.3115;1.6414;4.6569;8.6135;0.5392;0.1912;0.3073;0.7589;0.4291;0.7389;0.016;37.0;-31.96;-14.84;0.19;12.43;-60.24;-82.06;0.0;1009.49;54.322;37.51093;127.05793;54.65;NaN;;2.56;3.790092;337.6;21 / 43;140060;2020-09-25 14:53:18:032
0.89;6.905;-0.5241;4.6102;8.6358;0.5822;-0.1825;0.7288;0.5285;0.5515;0.8309;-0.0616;41.0;-29.25;-15.72;-2.54;2.08;-61.72;-82.8;0.0;1009.51;53.624;37.510952;127.057915;54.18;NaN;;2.75;3.790092;339.7;20 / 43;140560;2020-09-25 14:53:18:532
5.0617;9.6454;0.1622;4.4585;8.7181;0.5351;-0.3598;0.099;0.5798;0.2155;0.6577;-0.3806;44.0;-29.52;-15.17;-6.57;354.5;-61.53;-80.43;0.0;1009.53;53.004;37.510952;127.057915;54.18;NaN;;2.75;3.790092;339.7;20 / 43;141060;2020-09-25 14:53:19:032
4.1694;6.9265;0.9383;4.5514;8.5849;1.3244;0.5469;0.3166;-0.8319;-0.0155;-0.3762;-0.2977;41.0;-36.22;-17.46;-13.4;354.51;-61.09;-73.78;0.0;1009.48;51.372;37.51097;127.05791;53.44;NaN;;2.41;3.790092;340.8;20 / 43;141559;2020-09-25 14:53:19:531
2.5608;8.7663;-0.0857;4.4037;8.6634;1.3125;-1.0383;0.1478;-1.0542;0.2214;0.2224;-0.0181;47.0;-39.61;-24.26;-13.89;357.77;-60.61;-72.03;0.0;1009.46;49.278;37.51097;127.05791;53.44;NaN;;2.41;3.790092;340.8;20 / 43;142060;2020-09-25 14:53:20:032
5.6965;10.0227;1.4055;4.3626;8.6885;1.2834;-0.2246;0.3302;0.5219;0.2643;0.3664;0.2818;44.0;-38.02;-29.33;-10.65;359.59;-63.14;-74.09;0.0;1009.44;49.542;37.51099;127.057884;53.2;NaN;;2.84;3.790092;331.3;19 / 43;142559;2020-09-25 14:53:20:531
7.2991;9.8526;1.6462;4.0583;8.8485;1.1851;0.8278;0.0958;-0.0771;-0.802;-0.3254;0.3397;41.0;-30.01;-30.7;-5.04;349.06;-63.21;-78.08;0.0;1009.44;49.031;37.51099;127.057884;53.2;NaN;;2.84;3.790092;331.3;19 / 43;143060;2020-09-25 14:53:21:032
4.4042;9.5771;2.6571;4.1502;8.7454;1.5702;-0.1187;-0.2341;0.4877;0.4675;0.434;0.0899;42.0;-34.04;-27.91;-5.86;20.06;-63.1;-69.28;0.0;1009.44;51.054;37.511017;127.05787;53.0;NaN;;2.61;3.790092;333.2;20 / 44;143559;2020-09-25 14:53:21:531
5.2198;6.99;1.5264;4.1465;8.7512;1.5471;0.5399;-0.2282;0.4239;0.031;-0.1288;-0.0808;35.0;-34.3;-25.52;-1.47;28.78;-64.12;-71.47;0.0;1009.45;49.081;37.511017;127.05787;53.0;NaN;;2.61;3.790092;333.2;20 / 44;144059;2020-09-25 14:53:22:031
4.5407;7.5242;0.6137;4.8345;8.4853;0.8931;0.3649;0.0109;0.7313;0.699;0.0834;-0.287;30.0;-35.82;-23.8;6.93;37.49;-59.91;-79.53;0.0;1009.45;53.3;37.51104;127.05786;52.65;NaN;;2.56;3.790092;342.0;20 / 44;144559;2020-09-25 14:53:22:531
6.2283;8.2812;-1.7626;4.8619;8.4816;0.7709;-0.7814;-0.2144;0.8001;1.1219;2.0984;-0.2318;35.0;-39.3;-22.84;4.54;25.93;-60.7;-81.69;0.0;1009.38;54.58;37.51104;127.05786;52.65;NaN;;2.56;3.790092;342.0;20 / 44;145059;2020-09-25 14:53:23:031
7.3853;12.8997;0.6305;4.7571;8.4626;1.3873;0.3323;0.3682;-1.3075;0.6448;0.4939;-0.1647;36.0;-39.38;-28.3;-4.38;20.31;-59.65;-73.74;0.0;1009.38;54.833;37.511063;127.05785;52.46;NaN;;2.55;3.790092;348.1;20 / 44;145560;2020-09-25 14:53:23:532
5.2737;9.5831;1.9133;4.9769;8.3688;1.1679;0.3237;0.755;-0.2073;0.6305;0.4824;-0.2455;41.0;-31.11;-32.1;0.3;37.97;-58.58;-76.79;0.0;1009.42;56.518;37.511063;127.05785;52.46;NaN;;2.55;3.790092;348.1;20 / 44;146060;2020-09-25 14:53:24:032
2.3848;9.2753;1.9432;4.2525;8.7711;1.0742;0.5693;-0.4555;0.1656;-0.292;-0.1996;0.0391;42.0;-27.51;-21.83;-1.44;26.41;-61.87;-73.99;0.0;1009.45;53.499;37.51109;127.057846;51.99;NaN;;2.46;3.790092;347.2;21 / 44;146559;2020-09-25 14:53:24:531
4.4892;8.3662;1.4941;4.6701;8.4648;1.6458;-0.2329;-0.1359;0.363;0.4794;0.3346;-0.0913;41.0;-33.79;-18.1;-2.2;28.4;-58.73;-69.57;0.0;1009.5;52.662;37.51109;127.057846;51.99;NaN;;2.46;3.790092;347.2;21 / 44;147060;2020-09-25 14:53:25:032
2.3704;9.1208;1.4677;4.2794;8.7769;0.907;-0.3298;-0.4843;0.4946;0.0855;0.2498;-0.0816;46.0;-32.02;-18.09;-5.04;10.04;-61.83;-74.88;0.0;1009.53;51.953;37.511112;127.05784;51.45;NaN;;2.58;3.790092;337.1;21 / 44;147560;2020-09-25 14:53:25:532
3.9275;6.8918;1.6905;4.4438;8.5857;1.6457;0.7005;0.8513;0.5146;0.3584;-0.0285;0.0525;40.0;-31.19;-16.52;-4.42;20.81;-61.1;-69.68;0.0;1009.54;52.209;37.511112;127.05784;51.45;NaN;;2.58;3.790092;337.1;21 / 44;148059;2020-09-25 14:53:26:031
6.3182;9.6502;2.3433;5.3732;8.0795;1.4217;-0.0971;0.89;0.9994;0.9479;0.9818;-0.0478;49.0;-31.17;-9.3;-4.2;11.24;-55.47;-75.18;0.0;1009.56;53.334;37.51113;127.05782;51.41;NaN;;2.47;3.831836;333.2;21 / 44;148559;2020-09-25 14:53:26:531
4.6701;8.2009;-0.4415;5.3471;8.0916;1.4505;-0.2581;0.511;0.4742;1.4071;1.1777;-0.2691;48.0;-35.41;-5.81;-7.63;3.15;-55.6;-74.82;0.0;1009.57;54.719;37.51113;127.05782;51.41;NaN;;2.47;3.831836;333.2;21 / 44;149059;2020-09-25 14:53:27:031
4.0341;8.8214;2.8715;4.7196;8.3427;2.0726;-1.005;-0.9793;-0.2905;0.1651;0.7024;0.1362;46.0;-34.03;-4.06;-14.78;355.06;-61.11;-70.26;0.0;1009.56;61.388;37.51115;127.057816;51.65;NaN;;2.02;3.918883;333.3;21 / 44;149559;2020-09-25 14:53:27:531
9.5053;17.8799;3.2488;4.6387;8.4811;1.6505;-0.6534;-0.8284;-0.4056;-0.4068;-0.3959;0.2169;44.0;-42.8;-2.44;-13.19;3.28;-59.86;-70.41;0.0;1009.56;55.573;37.51115;127.057816;51.65;NaN;;2.02;3.918883;333.3;21 / 44;150059;2020-09-25 14:53:28:031
3.6783;9.9448;0.1862;4.2876;8.767;0.9624;1.0752;0.4827;1.2155;-0.931;-1.3779;0.0268;42.0;-39.81;-11.99;-15.47;349.74;-63.38;-77.35;0.0;1009.57;58.344;37.51117;127.05781;51.28;NaN;;2.31;4.141888;332.4;21 / 44;150559;2020-09-25 14:53:28:531
6.8619;10.0011;-0.1253;4.6651;8.4542;1.7127;0.0868;-0.3719;0.1519;0.359;0.1596;0.165;37.0;-52.86;-19.54;-24.28;351.21;-60.77;-71.85;0.0;1009.58;51.459;37.51117;127.05781;51.28;NaN;;2.31;4.141888;332.4;21 / 44;151059;2020-09-25 14:53:29:031
2.5441;8.2919;0.5479;5.1754;8.2611;1.0677;-0.7184;0.0816;0.4636;0.0534;0.2194;-0.0632;51.0;-51.35;-23.05;-13.1;357.04;-59.88;-77.61;0.0;1009.58;53.092;37.51118;127.0578;50.28;NaN;;0.76;4.591022;333.8;22 / 44;151560;2020-09-25 14:53:29:532
3.7059;5.9216;0.5563;4.2295;8.8199;0.7009;2.136;-0.3354;0.5511;-1.3124;-0.7775;0.1523;44.0;-42.75;-23.16;-13.0;349.07;-64.08;-80.59;0.0;1009.58;54.279;37.51118;127.0578;50.28;NaN;;0.76;4.591022;333.8;22 / 44;152060;2020-09-25 14:53:30:032
5.9097;8.7591;1.9349;4.0808;8.8651;0.9632;0.2874;-0.0792;0.2691;-0.1715;-0.1063;0.4042;45.0;-38.59;-29.07;-20.03;339.46;-59.64;-73.92;0.0;1009.57;55.479;37.5112;127.05779;50.73;NaN;;2.88;4.434702;337.8;24 / 44;152559;2020-09-25 14:53:30:531
7.9111;8.9555;-3.7939;4.4633;8.7;0.748;1.1288;0.1881;-2.3268;0.7337;1.1334;-0.1812;41.0;-34.93;-23.01;-17.18;330.97;-62.27;-82.38;0.0;1009.56;54.245;37.5112;127.05779;50.73;NaN;;2.88;4.434702;337.8;24 / 44;153060;2020-09-25 14:53:31:032
7.7962;12.3679;2.3816;4.9661;8.3391;1.4027;1.5666;0.4397;-0.7763;-1.0496;-1.238;-0.4349;49.0;-38.19;-20.06;-23.94;335.83;-65.65;-75.59;0.0;1009.55;58.51;37.511215;127.05778;50.51;NaN;;2.18;4.704565;331.1;24 / 44;153560;2020-09-25 14:53:31:532
5.0569;7.099;2.2355;4.2071;8.8107;0.9177;0.3425;-0.7642;-0.0237;-0.415;-0.8935;-0.4113;51.0;-40.07;-24.7;-17.89;341.81;-63.95;-77.69;0.0;1009.55;57.562;37.511215;127.05778;50.51;NaN;;2.18;4.704565;331.1;24 / 44;154060;2020-09-25 14:53:32:032
5.9768;8.4596;0.8988;4.746;8.4435;1.5339;-1.3561;-0.3366;-0.478;-0.42;-0.1903;0.3038;45.0;-41.22;-21.22;-21.87;341.46;-57.95;-73.22;0.0;1009.55;55.335;37.51123;127.05776;50.44;NaN;;2.03;4.136343;327.2;24 / 44;154559;2020-09-25 14:53:32:531
5.4989;8.1973;2.0942;4.6812;8.5423;1.1341;-0.4424;-0.1809;-2.1365;-0.2061;-0.2406;-0.1889;42.0;-34.42;-26.41;-18.59;332.28;-60.58;-76.38;0.0;1009.56;51.374;37.51123;127.05776;50.44;NaN;;2.03;4.136343;327.2;24 / 44;155060;2020-09-25 14:53:33:032
5.6318;8.8633;0.6784;4.7617;8.5168;0.9801;-1.0247;1.0698;0.2013;-0.0734;0.1191;0.031;39.0;-30.43;-24.17;-12.31;345.21;-58.86;-75.26;0.0;1009.57;53.952;37.51125;127.057755;50.71;NaN;;2.14;3.801299;331.1;24 / 44;155559;2020-09-25 14:53:33:531
2.4159;8.456;-0.9996;5.0479;8.361;0.885;0.0978;0.8872;0.5864;0.4132;0.443;-0.2948;41.0;-31.22;-19.9;-12.22;344.49;-58.87;-77.39;0.0;1009.57;52.588;37.51125;127.057755;50.71;NaN;;2.14;3.801299;331.1;24 / 44;156059;2020-09-25 14:53:34:031
5.4342;10.0263;0.1263;4.6315;8.5739;1.0993;-1.7744;-1.037;-0.07;0.0105;0.4165;0.3385;42.0;-29.43;-19.0;-16.35;331.87;-62.56;-79.17;0.0;1009.57;54.591;37.511265;127.05775;50.66;NaN;;2.24;3.790092;335.5;24 / 44;156559;2020-09-25 14:53:34:531
5.7708;8.1231;1.1743;4.502;8.632;1.1797;0.4353;0.1735;0.0845;0.1083;-0.0743;-0.3219;39.0;-23.38;-16.66;-13.63;333.14;-61.38;-74.6;0.0;1009.56;55.161;37.511265;127.05775;50.66;NaN;;2.24;3.790092;335.5;24 / 44;157060;2020-09-25 14:53:35:032
8.1758;11.4791;0.9036;4.3557;8.6531;1.5238;1.0113;0.0479;0.5128;0.5141;0.0792;-0.3725;38.0;-23.83;-10.89;-11.27;354.7;-61.12;-68.95;0.0;1009.55;56.847;37.511284;127.05774;50.44;NaN;;2.2;3.790092;335.1;24 / 44;157559;2020-09-25 14:53:35:531
7.1362;12.2373;1.5228;4.3246;8.6468;1.6432;-1.4408;-1.6794;-0.3333;0.2006;0.2958;0.1657;39.0;-29.5;-9.5;-17.14;346.35;-59.42;-69.37;0.0;1009.56;55.985;37.511284;127.05774;50.44;NaN;;2.2;3.790092;335.1;24 / 44;158060;2020-09-25 14:53:36:032
2.7273;4.0975;0.4341;4.1124;8.84;1.0552;1.0707;-0.979;-0.2321;-0.6529;-0.2472;0.5033;37.0;-26.92;-7.03;-6.85;5.25;-62.1;-71.44;0.0;1009.57;54.214;37.511303;127.05773;50.17;NaN;;2.23;3.790092;335.5;24 / 44;158559;2020-09-25 14:53:36:531
3.6807;7.3877;1.5468;4.7782;8.5313;0.7457;0.8902;-0.1415;0.4787;0.4964;0.1881;-0.2788;33.0;-27.96;-7.38;-5.74;355.7;-60.45;-81.13;0.0;1009.57;61.732;37.511303;127.05773;50.17;NaN;;2.23;3.790092;335.5;24 / 44;159059;2020-09-25 14:53:37:031
8.9927;11.0611;1.9109;4.4379;8.7235;0.6123;-1.1079;-0.0907;-0.4042;-0.3607;-0.0751;0.2879;36.0;-26.96;-6.54;-7.25;356.0;-59.93;-78.43;0.0;1009.56;63.723;37.51132;127.05772;49.78;NaN;;2.43;3.790092;341.1;24 / 44;159559;2020-09-25 14:53:37:531
1.9009;8.5998;0.1646;4.3855;8.6291;1.5737;-0.7746;-0.0293;0.0261;-0.1218;0.1479;0.0406;33.0;-26.56;-3.09;-11.44;357.08;-61.63;-70.26;0.0;1009.56;63.669;37.51132;127.05772;49.78;NaN;;2.43;3.790092;341.1;24 / 44;160059;2020-09-25 14:53:38:031
5.1935;9.419;0.1514;4.6962;8.4824;1.471;0.6001;0.5865;-1.1212;0.072;-0.2903;-0.3585;26.0;-29.68;-1.75;-13.47;349.77;-62.17;-75.34;0.0;1009.55;53.956;37.51134;127.05771;49.53;NaN;;2.14;3.790092;341.9;24 / 44;160559;2020-09-25 14:53:38:531
4.6293;9.0753;1.7959;4.0819;8.8323;1.2244;-1.2155;-1.3361;-0.9424;-0.3404;-0.363;0.1739;28.0;-28.07;-2.25;-9.71;356.61;-64.24;-73.3;0.0;1009.55;53.962;37.51134;127.05771;49.53;NaN;;2.14;3.790092;341.9;24 / 44;161059;2020-09-25 14:53:39:031
3.343;6.4163;1.0581;4.9613;8.3965;1.0269;-0.442;-0.5292;0.3487;0.284;-0.4554;-0.5275;30.0;-32.6;-3.07;-11.29;351.71;-58.89;-78.31;0.0;1009.55;54.811;37.51136;127.0577;49.37;NaN;;2.44;3.790092;340.3;24 / 44;161559;2020-09-25 14:53:39:531
3.5646;6.6978;1.2605;4.9482;8.4245;0.8449;0.3222;1.0403;1.1026;0.9905;0.7243;0.0023;30.0;-34.01;-7.17;-13.75;351.18;-59.84;-74.42;0.0;1009.55;54.968;37.51136;127.0577;49.37;NaN;;2.44;3.790092;340.3;24 / 44;162059;2020-09-25 14:53:40:031
8.4705;12.3116;1.7504;4.6577;8.6083;0.6114;-0.8217;-0.1397;0.1727;0.2133;0.1538;-0.074;35.0;-29.07;-14.2;-13.37;334.59;-59.94;-82.64;0.0;1009.55;54.797;37.51138;127.057686;49.74;NaN;;2.52;3.790092;340.7;25 / 44;162559;2020-09-25 14:53:40:531
5.6151;6.4091;-0.2402;4.4667;8.7169;0.4845;1.4225;-0.3553;-0.8526;-0.5815;-0.2959;-0.1607;41.0;-22.87;-15.78;-21.11;309.2;-62.73;-83.81;0.0;1009.54;55.167;37.51138;127.057686;49.74;NaN;;2.52;3.790092;340.7;25 / 44;163059;2020-09-25 14:53:41:031
2.3393;9.2777;2.4726;4.6239;8.488;1.6568;-0.0942;-0.0961;0.2207;0.3508;0.029;-0.4594;26.0;-26.91;-11.43;-23.49;330.94;-58.27;-70.17;0.0;1009.54;54.481;37.511395;127.057686;48.7;NaN;;1.58;3.790092;3.8;24 / 44;163559;2020-09-25 14:53:41:531
1.4422;7.5697;-0.7349;4.2278;8.7254;1.4708;0.5863;-0.1103;0.2079;0.2896;0.6104;0.24;25.0;-26.52;-15.79;-15.47;346.42;-62.19;-69.73;0.0;1009.53;56.222;37.511395;127.057686;48.7;NaN;;1.58;3.790092;3.8;24 / 44;164060;2020-09-25 14:53:42:032
3.0447;7.7661;2.2558;4.6729;8.6079;0.488;-0.9757;-0.5888;1.4598;0.1601;0.5399;-0.1029;30.0;-29.09;-16.84;-11.11;343.21;-59.96;-79.27;0.0;1009.53;52.363;37.511414;127.05768;49.58;NaN;;2.6;3.790092;339.9;24 / 44;164559;2020-09-25 14:53:42:531
4.9;9.3256;0.6605;3.7564;8.9878;1.1306;1.6846;-0.1083;-0.7475;-1.0353;-0.2169;0.5973;23.0;-22.59;-19.19;-16.66;330.53;-66.42;-73.25;0.0;1009.54;51.116;37.511414;127.05768;49.58;NaN;;2.6;3.790092;339.9;24 / 44;165059;2020-09-25 14:53:43:031
7.2476;10.5377;2.0786;4.0911;8.7758;1.555;-0.1013;-0.5915;-1.2268;-0.1581;-0.4193;0.1214;23.0;-19.23;-14.08;-7.03;356.23;-63.27;-71.97;0.0;1009.53;53.311;37.511433;127.05766;49.76;NaN;;2.68;3.790092;324.1;24 / 44;165559;2020-09-25 14:53:43:531
5.1444;8.8166;2.0211;4.6954;8.5373;1.1123;0.3042;0.2612;-1.5304;-0.0839;-0.4977;-0.3194;24.0;-23.67;-8.39;-9.75;347.15;-60.52;-76.67;0.0;1009.53;52.36;37.511433;127.05766;49.76;NaN;;2.68;3.790092;324.1;24 / 44;166059;2020-09-25 14:53:44:031
6.4379;9.6682;2.7409;4.33;8.7544;0.8842;-1.0458;0.1061;0.0932;-0.284;-0.1891;0.1736;28.0;-25.0;-10.42;-8.32;349.84;-61.34;-78.39;0.0;1009.53;51.494;37.51145;127.05765;50.05;NaN;;2.59;3.790092;331.8;24 / 44;166559;2020-09-25 14:53:44:531
4.8174;5.5192;-2.2357;4.3366;8.6979;1.3078;-0.1909;0.0857;-1.5722;0.0412;-0.6121;-0.7906;26.0;-28.51;-9.25;-12.54;348.64;-60.98;-74.26;0.0;1009.52;62.458;37.51145;127.05765;50.05;NaN;;2.59;3.790092;331.8;24 / 44;167059;2020-09-25 14:53:45:031
5.1767;9.0813;1.8917;4.9361;8.3298;1.5557;-1.2232;0.323;0.3113;1.1923;0.3031;-0.0161;22.0;-38.86;-5.97;-6.1;11.33;-58.15;-72.51;0.0;1009.51;52.27;37.51147;127.05763;49.77;NaN;;2.43;3.790092;331.1;24 / 44;167560;2020-09-25 14:53:45:532
4.8881;7.3469;2.5721;4.7255;8.5266;1.0663;-0.7888;-0.2874;0.4838;-0.7854;0.7201;0.8152;27.0;-35.07;-12.24;-8.73;345.03;-65.54;-87.22;0.0;1009.5;51.191;37.51147;127.05763;49.77;NaN;;2.43;3.790092;331.1;24 / 44;168059;2020-09-25 14:53:46:031
6.5685;11.5055;1.6929;4.7299;8.5679;0.6245;-0.7675;-0.2547;0.9834;-0.2613;0.3631;0.52;39.0;-30.88;-14.75;-10.82;341.48;-62.21;-83.06;0.0;1009.51;51.677;37.511494;127.057625;49.66;NaN;;2.58;3.790092;337.6;23 / 44;168559;2020-09-25 14:53:46:531
4.0329;6.8175;1.3108;4.5914;8.5137;1.6145;0.8652;1.2697;0.4724;0.1479;0.2034;0.0228;32.0;-25.85;-17.6;-17.17;336.75;-60.24;-70.63;0.0;1009.52;51.347;37.511494;127.057625;49.66;NaN;;2.58;3.790092;337.6;23 / 44;169060;2020-09-25 14:53:47:032
6.7984;9.8179;2.0642;4.2209;8.7588;1.2801;-0.4244;0.1661;-0.682;-0.7178;-0.7506;-0.0732;32.0;-23.22;-19.95;-15.03;330.09;-64.27;-74.99;0.0;1009.52;53.345;37.511513;127.05761;50.67;NaN;;2.6;3.790092;328.9;23 / 44;169559;2020-09-25 14:53:47:531
3.5801;7.1301;1.3563;4.3166;8.7645;0.8493;0.6004;0.2131;-0.1966;-0.4197;-0.6025;0.3636;31.0;-21.73;-19.0;-6.87;346.43;-63.25;-79.5;0.0;1009.52;55.033;37.511513;127.05761;50.67;NaN;;2.6;3.790092;328.9;23 / 44;170059;2020-09-25 14:53:48:031
4.0269;7.4978;0.6269;4.0006;8.9331;0.6047;1.3788;-0.4059;-0.315;-0.3989;-0.3216;-0.3159;26.0;-19.16;-16.78;-13.27;315.65;-60.37;-80.19;0.0;1009.52;51.06;37.51153;127.057594;51.4;NaN;;2.38;3.790092;319.0;22 / 44;170559;2020-09-25 14:53:48:531
4.0556;7.3026;1.2342;4.4217;8.6212;1.5149;0.4246;0.071;-1.579;0.4483;-0.1428;-0.6105;24.0;-21.13;-17.07;-11.49;343.93;-61.54;-71.09;0.0;1009.52;51.766;37.51153;127.057594;51.4;NaN;;2.38;3.790092;319.0;22 / 44;171060;2020-09-25 14:53:49:032
5.8331;7.5314;-1.6057;4.7093;8.5367;1.0577;-1.7094;-0.9061;0.0066;0.5678;1.1223;-0.1354;31.0;-25.36;-14.13;-8.45;3.1;-60.08;-70.39;0.0;1009.52;53.207;37.51155;127.05758;51.02;NaN;;2.34;3.790092;328.7;21 / 44;171559;2020-09-25 14:53:49:531
6.9697;12.0421;1.5348;4.69;8.4084;1.8636;-0.5118;-0.3019;-0.3269;0.3966;0.7791;-0.2214;27.0;-23.27;-9.72;-15.54;340.03;-61.27;-69.44;0.0;1009.52;50.422;37.51155;127.05758;51.02;NaN;;2.34;3.790092;328.7;21 / 44;172060;2020-09-25 14:53:50:032
7.0931;9.6705;1.8798;4.2366;8.6923;1.6326;0.9894;-0.2149;-0.6276;-0.1886;-0.5474;0.233;24.0;-22.32;-5.87;-8.78;350.17;-64.5;-75.57;0.0;1009.52;52.161;37.511574;127.05757;50.6;NaN;;2.36;3.790092;339.6;21 / 44;172560;2020-09-25 14:53:50:532
5.2629;10.1604;0.4233;4.716;8.5622;0.7862;0.394;0.545;0.9673;0.0493;-0.1148;0.0059;28.0;-25.95;-6.53;-13.3;339.16;-63.93;-80.12;0.0;1009.52;53.288;37.511574;127.05757;50.6;NaN;;2.36;3.790092;339.6;21 / 44;173060;2020-09-25 14:53:51:032
5.5923;8.8872;1.6198;5.0584;8.3703;0.7214;-0.3978;1.5665;0.4666;0.3453;-0.1757;0.732;52.0;-23.16;-7.63;-11.05;333.21;-63.09;-84.93;0.0;1009.52;49.191;37.511593;127.05756;50.57;NaN;;2.21;3.790092;352.6;21 / 44;173559;2020-09-25 14:53:51:531
5.318;8.6968;1.8654;4.9338;8.4271;0.9013;0.0628;1.0834;1.1433;-0.4836;0.6546;0.7831;41.0;-19.81;-8.05;-15.02;319.36;-64.9;-89.1;0.0;1009.51;51.449;37.511593;127.05756;50.57;NaN;;2.21;3.790092;352.6;21 / 44;174060;2020-09-25 14:53:52:032
5.5276;8.8249;0.9048;4.5243;8.628;1.1225;0.0713;-0.1372;0.194;-1.0009;-0.746;-0.058;37.0;-13.67;-10.5;-12.97;315.72;-61.62;-76.07;0.0;1009.51;47.375;37.51161;127.05756;50.04;NaN;;1.57;3.790092;343.7;21 / 44;174559;2020-09-25 14:53:52:531
3.6508;9.4274;1.633;3.982;8.874;1.2516;-0.4883;-0.034;-0.6871;-0.8635;-0.6832;0.2123;32.0;-17.39;-6.77;-17.58;323.94;-64.81;-72.55;0.0;1009.51;50.744;37.51161;127.05756;50.04;NaN;;1.57;3.790092;343.7;21 / 44;175059;2020-09-25 14:53:53:031
6.6356;10.194;1.7684;4.0201;8.7691;1.7643;1.5574;1.0106;-0.1187;-0.4491;-0.8104;0.2096;28.0;-18.26;-8.51;-15.9;332.14;-63.76;-69.21;0.0;1009.51;50.819;37.511623;127.05755;51.03;NaN;;1.17;3.790092;334.7;21 / 44;175559;2020-09-25 14:53:53:531
5.0509;11.2072;0.5107;4.043;8.8353;1.3276;0.1467;0.5178;-0.0054;0.4095;-0.1073;-0.4643;23.0;-26.77;-8.25;-10.61;354.9;-64.28;-71.82;0.0;1009.5;54.422;37.511623;127.05755;51.03;NaN;;1.17;3.790092;334.7;21 / 44;176059;2020-09-25 14:53:54:031
4.8881;6.8607;1.0749;4.8442;8.4969;0.7119;-0.2312;0.1264;1.1382;0.9024;0.6966;-0.9472;28.0;-27.86;-7.12;-6.06;6.03;-57.32;-73.62;0.0;1009.5;52.204;37.511635;127.05755;50.36;NaN;;1.46;3.808054;346.2;21 / 44;176559;2020-09-25 14:53:54:531
4.094;9.7604;1.5719;5.3302;8.0874;1.534;-1.0494;0.7201;0.0301;1.1549;0.6463;0.0135;29.0;-33.46;-5.97;-4.89;10.25;-55.56;-73.94;0.0;1009.5;54.692;37.511635;127.05755;50.36;NaN;;1.46;3.808054;346.2;21 / 44;177059;2020-09-25 14:53:55:031
3.8796;7.7901;1.3695;4.4506;8.711;0.6937;0.0888;-0.1573;0.8559;0.29;0.6447;-0.2476;37.0;-31.11;-7.74;-3.51;353.89;-60.88;-87.23;0.0;1009.5;48.751;37.511658;127.05754;51.12;NaN;;2.16;3.912872;342.2;21 / 44;177559;2020-09-25 14:53:55:531
4.8018;8.5459;0.252;4.0412;8.8946;0.8509;0.8881;0.0254;0.2728;0.2283;-0.4138;-0.7924;26.0;-25.27;-16.22;-12.32;339.57;-65.09;-78.11;0.0;1009.5;50.91;37.511658;127.05754;51.12;NaN;;2.16;3.912872;342.2;21 / 44;178060;2020-09-25 14:53:56:032
4.7012;6.7253;-1.2763;5.5729;7.9263;1.5125;0.3284;-0.481;0.8659;2.4372;2.759;-0.2027;28.0;-35.49;-3.31;-3.85;12.37;-54.16;-74.02;0.0;1009.51;53.695;37.511673;127.05753;50.82;NaN;;1.91;3.790092;336.4;20 / 44;178559;2020-09-25 14:53:56:531
4.9791;7.9099;1.1216;5.1608;8.3104;0.6881;-0.3675;0.3535;1.4448;-1.5443;-1.662;1.0925;34.0;-31.48;-6.29;-8.01;337.17;-67.3;-95.13;0.0;1009.51;51.379;37.511673;127.05753;50.82;NaN;;1.91;3.790092;336.4;20 / 44;179059;2020-09-25 14:53:57:031
5.8055;7.2068;0.3862;4.3413;8.7532;-0.8398;0.4362;-0.9528;-0.3069;-0.1688;0.1083;-0.1703;34.0;-17.92;-15.36;-10.28;302.85;-60.9;-95.45;0.0;1009.51;56.138;37.51169;127.057526;50.17;NaN;;1.56;3.790092;348.1;20 / 44;179559;2020-09-25 14:53:57:531
6.4176;7.4044;1.6115;6.2278;7.5503;0.6148;-1.7091;0.9978;1.7168;1.1331;0.6732;0.1834;59.0;-36.25;-0.94;-2.72;20.32;-56.51;-68.39;0.0;1009.51;57.706;37.51169;127.057526;50.17;NaN;;1.56;3.790092;348.1;20 / 44;180059;2020-09-25 14:53:58:031
5.5552;9.0549;-3.1088;5.0106;8.3952;0.7645;1.9212;1.5862;-4.4532;-2.3176;-4.8313;-0.4669;39.0;-19.96;-13.68;-19.42;285.92;-61.12;-102.99;0.0;1009.51;57.405;37.511703;127.05752;49.98;NaN;;1.25;3.79489;352.1;20 / 44;180559;2020-09-25 14:53:58:531
7.9782;9.1328;-2.7615;5.5756;7.9818;1.1723;1.3091;1.0235;-2.1303;-0.0271;-1.5282;-1.5329;62.0;-16.76;-17.88;-17.47;294.42;-56.15;-80.19;0.0;1009.52;55.352;37.511703;127.05752;49.98;NaN;;1.25;3.79489;352.1;20 / 44;181060;2020-09-25 14:53:59:032
13.9478;18.7758;5.1172;3.2803;9.2381;-0.2613;3.424;0.9343;1.4398;0.7137;1.0684;-2.6741;34.0;9.55;-39.61;-8.0;197.05;-70.39;-94.55;0.0;1009.52;53.079;37.511715;127.05751;50.31;NaN;;1.61;3.864388;315.2;20 / 44;181560;2020-09-25 14:53:59:532
7.341;9.9089;2.3624;7.6886;5.8793;1.5779;-2.5349;2.6808;0.0403;-1.3167;0.7601;-0.1039;61.0;-34.1;-12.56;-19.52;319.62;-53.8;-86.15;0.0;1009.52;61.472;37.511715;127.05751;50.31;NaN;;1.61;3.864388;315.2;20 / 44;182059;2020-09-25 14:54:00:031
1.544;8.6992;0.5754;3.3808;9.1436;-1.0655;1.8131;0.7456;2.3707;0.6282;-0.9827;-2.2127;61.0;2.95;-38.62;-0.42;176.92;-68.81;-107.49;0.0;1009.53;59.124;37.51172;127.057495;51.74;NaN;;0.54;3.790092;308.8;20 / 44;182559;2020-09-25 14:54:00:531
2.4794;8.7806;-1.7434;2.8996;9.3681;-0.0437;-0.4569;-0.7007;-0.9388;-1.7683;-2.6522;2.0067;3.0;-8.63;-30.63;-9.85;274.28;-81.92;-108.62;0.0;1009.53;63.74;37.51172;127.057495;51.74;NaN;;0.54;3.790092;308.8;20 / 44;183059;2020-09-25 14:54:01:031
3.3561;8.8393;0.3035;5.4607;7.9707;1.6789;-0.3644;0.8603;-1.5588;1.3342;0.7931;-0.5997;50.0;-22.2;-19.74;-18.37;289.61;-42.87;-70.89;0.0;1009.54;56.053;37.51172;127.05749;51.73;NaN;;0.0;3.870479;;21 / 44;183559;2020-09-25 14:54:01:531
3.2052;8.7076;1.9852;4.3121;8.752;0.9888;0.108;-0.5461;-1.4713;-0.911;-1.7276;0.7679;50.0;-14.68;-25.23;-15.2;288.92;-64.76;-82.94;0.0;1009.54;49.411;37.51172;127.05749;51.73;NaN;;0.0;3.870479;;21 / 44;184059;2020-09-25 14:54:02:031
8.3938;6.1288;3.7818;4.7361;8.4941;1.2612;3.0026;-0.4657;-3.3391;-0.2669;-0.9726;-1.2071;73.0;-16.43;-21.73;-15.1;298.95;-60.01;-75.09;0.0;1009.54;48.73;37.51172;127.05749;51.73;NaN;;0.0;3.870479;;23 / 44;184559;2020-09-25 14:54:02:531
4.4209;8.7782;1.9983;5.4506;8.1022;0.9026;-0.6244;0.6962;1.0905;0.5731;2.1276;-0.0368;59.0;-19.01;-21.01;-16.35;294.64;-55.71;-80.6;0.0;1009.53;48.97;37.51172;127.05749;51.73;NaN;;0.0;3.870479;;23 / 44;185059;2020-09-25 14:54:03:031
4.4844;8.6836;0.7311;4.583;8.6136;0.9862;0.2178;-0.2526;-0.379;-0.3767;-0.2534;0.1694;70.0;-14.43;-23.81;-16.22;285.43;-61.44;-77.86;0.0;1009.53;48.9;37.51172;127.05748;51.99;NaN;;0.15;4.358296;308.8;23 / 44;185560;2020-09-25 14:54:03:532
4.5072;8.7722;1.3635;4.8465;8.4137;1.3757;-0.4443;0.358;-0.1025;0.0319;0.0846;0.0355;70.0;-20.73;-20.87;-20.58;308.18;-59.24;-74.45;0.0;1009.53;48.493;37.51172;127.05748;51.99;NaN;;0.15;4.358296;308.8;23 / 44;186059;2020-09-25 14:54:04:031
4.73;8.5794;1.0222;4.6493;8.56;1.1317;0.0312;0.0105;-0.0751;-0.088;-0.1111;-0.0079;63.0;-19.11;-21.66;-16.55;307.72;-60.77;-75.44;0.0;1009.53;47.239;37.51172;127.05748;51.99;NaN;;0.15;4.358296;308.8;24 / 44;186559;2020-09-25 14:54:04:531
4.694;8.5614;1.1515;4.6964;8.5339;1.1343;0.0126;-0.0044;-0.0496;0.0085;0.0042;-0.0029;65.0;-17.42;-20.29;-16.74;302.55;-60.48;-76.42;0.0;1009.53;47.858;37.51172;127.05748;51.99;NaN;;0.15;4.358296;308.8;24 / 44;187059;2020-09-25 14:54:05:031
4.7228;8.5722;1.1575;4.6932;8.5348;1.1409;-0.0084;0.0049;0.0021;-0.0172;-0.0182;0.0053;65.0;-20.07;-21.02;-15.39;314.33;-60.55;-76.44;0.0;1009.53;46.978;37.51172;127.05748;51.99;NaN;;0.15;4.358296;308.8;24 / 44;187560;2020-09-25 14:54:05:532
4.6808;8.5782;1.2066;4.7061;8.5293;1.1282;0.0196;-0.0153;-0.016;-0.0408;-0.036;5.0E-4;66.0;-19.53;-20.58;-16.21;311.96;-60.43;-76.52;0.0;1009.53;47.462;37.51172;127.05748;51.99;NaN;;0.15;4.358296;308.8;24 / 44;188059;2020-09-25 14:54:06:031
4.7371;8.5567;1.0976;4.7075;8.5285;1.1292;-0.0203;0.0224;-0.066;-0.0623;-0.0562;0.0046;66.0;-18.86;-20.04;-16.52;308.7;-60.48;-76.47;0.0;1009.53;48.194;37.51172;127.05747;51.6;NaN;;0.0;4.605059;;24 / 44;188559;2020-09-25 14:54:06:531
4.7575;8.5195;0.7239;4.6884;8.552;1.0256;0.0577;-0.0444;-0.1774;-0.1437;-0.1547;0.0385;66.0;-19.71;-21.81;-17.45;308.67;-60.62;-76.73;0.0;1009.53;48.008;37.51172;127.05747;51.6;NaN;;0.0;4.605059;;24 / 44;189059;2020-09-25 14:54:07:031
4.7024;8.6034;1.2869;4.8151;8.4521;1.2435;-0.0857;0.0539;0.2477;0.3917;0.4072;-0.0141;70.0;-19.46;-20.04;-13.27;317.38;-59.53;-75.52;0.0;1009.52;47.43;37.51172;127.05747;51.6;NaN;;0.0;4.605059;;24 / 44;189559;2020-09-25 14:54:07:531
4.5874;8.6225;1.3995;4.679;8.5342;1.2017;-0.0787;0.0267;0.1959;-0.035;-0.002;-0.0021;65.0;-18.77;-20.3;-14.94;310.64;-60.77;-77.94;0.0;1009.52;49.279;37.51172;127.05747;51.6;NaN;;0.0;4.605059;;24 / 44;190059;2020-09-25 14:54:08:031
4.6689;8.6381;1.306;4.6576;8.5427;1.2244;-0.1195;0.0811;-0.1035;-0.1424;-0.1117;0.0452;65.0;-20.7;-20.16;-19.6;310.45;-61.16;-76.38;0.0;1009.52;47.167;37.51172;127.05747;51.6;NaN;;0.0;4.605059;;22 / 44;190560;2020-09-25 14:54:08:532
4.6653;8.5555;1.2761;4.633;8.5675;1.1419;-0.0108;0.0092;0.0248;-0.138;-0.1399;-0.0099;63.0;-21.0;-19.64;-21.27;307.89;-61.04;-77.18;0.0;1009.52;48.059;37.51172;127.05747;51.6;NaN;;0.0;4.605059;;22 / 44;191059;2020-09-25 14:54:09:031
4.5802;8.5039;1.4594;4.6184;8.5711;1.1733;0.0794;0.0622;-0.0632;0.2089;0.1419;-0.1383;66.0;-17.85;-21.09;-18.69;302.93;-60.57;-75.51;0.0;1009.52;46.388;37.51172;127.05747;51.6;NaN;;0.0;4.605059;;21 / 44;191559;2020-09-25 14:54:09:531
4.7084;8.6237;1.2282;4.6402;8.5381;1.3191;-0.037;0.0805;-0.0599;-0.0466;-0.1295;-0.0218;68.0;-19.9;-20.05;-19.84;309.7;-61.37;-75.3;0.0;1009.53;48.374;37.51172;127.05747;51.6;NaN;;0.0;4.605059;;21 / 44;192059;2020-09-25 14:54:10:031
4.5946;8.589;1.3504;4.6527;8.5629;1.0952;-0.0373;0.0495;-0.0963;-0.1009;-0.1207;-0.037;66.0;-18.23;-20.01;-15.23;309.07;-60.82;-76.84;0.0;1009.53;47.61;37.51172;127.05747;51.6;NaN;;0.0;4.605059;;21 / 44;192559;2020-09-25 14:54:10:531
4.694;8.6034;1.1084;4.6334;8.565;1.1587;0.0013;0.0242;-0.0309;-0.0218;-0.0598;-0.0236;66.0;-20.39;-21.11;-18.84;308.35;-60.85;-75.96;0.0;1009.52;45.82;37.51172;127.05747;51.6;NaN;;0.0;4.605059;;21 / 44;193059;2020-09-25 14:54:11:031
4.5754;8.6046;1.1779;4.6061;8.583;1.1345;0.0518;-0.046;-0.0362;0.0627;0.1034;0.0205;66.0;-18.24;-21.28;-15.56;306.97;-60.84;-75.99;0.0;1009.52;48.822;37.51172;127.05747;51.6;NaN;;0.0;4.605059;;21 / 44;193559;2020-09-25 14:54:11:531
4.6485;8.5986;1.0593;4.5876;8.5874;1.1747;-0.0214;0.0053;0.0046;0.0123;0.0141;0.0113;65.0;-19.91;-21.2;-17.57;310.71;-61.13;-75.64;0.0;1009.52;49.724;37.51172;127.05747;51.6;NaN;;0.0;4.605059;;21 / 44;194060;2020-09-25 14:54:12:032
4.6102;8.5986;1.1168;4.5863;8.593;1.1386;0.0116;-0.0178;-0.02;-0.0435;-0.0318;0.0198;65.0;-18.95;-21.86;-18.17;306.29;-61.13;-75.77;0.0;1009.51;52.647;37.51172;127.057465;51.34;NaN;;0.0;4.291264;;21 / 44;194559;2020-09-25 14:54:12:531
4.6305;8.5902;1.0893;4.6171;8.5723;1.1698;-0.016;0.0015;0.059;0.0911;0.084;-0.0062;65.0;-17.43;-21.2;-18.19;301.3;-60.94;-75.78;0.0;1009.51;53.207;37.51172;127.057465;51.34;NaN;;0.0;4.291264;;21 / 44;195059;2020-09-25 14:54:13:031
4.6269;8.5878;1.1467;4.6042;8.5781;1.1782;0.0065;-0.0077;0.0419;0.0864;0.0882;0.0038;65.0;-19.72;-20.84;-19.74;307.51;-60.97;-75.68;0.0;1009.51;46.836;37.51172;127.057465;51.34;NaN;;0.0;4.291264;;21 / 44;195559;2020-09-25 14:54:13:531
4.6449;8.5974;1.094;4.6088;8.5785;1.1566;-0.0062;0.0136;-0.0476;-0.009;-0.0151;-0.0032;65.0;-17.99;-20.53;-17.88;304.33;-61.02;-75.91;0.0;1009.51;51.104;37.51172;127.057465;51.34;NaN;;0.0;4.291264;;21 / 44;196059;2020-09-25 14:54:14:031
4.5922;8.6129;1.1875;4.6054;8.5796;1.1621;-0.003;-0.0011;-0.0035;-0.0056;-0.0066;-9.0E-4;65.0;-17.39;-21.08;-15.67;304.06;-61.03;-75.84;0.0;1009.5;57.043;37.51172;127.057465;51.34;NaN;;0.0;4.291264;;21 / 44;196559;2020-09-25 14:54:14:531
4.5898;8.6141;1.1827;4.5976;8.5845;1.1574;-0.0141;0.011;-0.0046;-0.0212;-0.027;-6.0E-4;65.0;-19.8;-20.93;-19.75;307.41;-61.09;-75.87;0.0;1009.5;56.502;37.51172;127.057465;51.34;NaN;;0.0;4.291264;;21 / 44;197059;2020-09-25 14:54:15:031
4.6102;8.6153;1.1839;4.5993;8.5804;1.1805;-0.0211;0.0065;0.0116;-0.0187;-0.0207;-9.0E-4;65.0;-21.47;-20.97;-19.53;310.09;-61.03;-75.71;0.0;1009.49;56.18;37.51172;127.057465;51.34;NaN;;0.0;4.291264;;21 / 44;197559;2020-09-25 14:54:15:531
4.6353;8.5998;1.1443;4.5954;8.5835;1.1733;-0.0057;0.0088;-0.038;0.0061;-5.0E-4;-0.0055;65.0;-17.37;-20.22;-22.61;298.27;-61.08;-75.68;0.0;1009.49;58.393;37.51172;127.057465;51.34;NaN;;0.0;4.291264;;21 / 44;198059;2020-09-25 14:54:16:031
4.3551;9.0142;1.524;4.5682;8.5857;1.2597;-0.1919;0.1808;-0.1027;0.0297;0.0742;0.0449;57.0;-18.78;-21.42;-16.02;312.0;-61.03;-75.04;0.0;1009.49;56.64;37.51172;127.05746;51.6;NaN;;0.0;4.256335;;21 / 44;198559;2020-09-25 14:54:16:531
4.2712;8.795;0.2784;4.7325;8.4737;1.4036;-0.4564;0.2965;0.2419;0.9373;1.2325;0.2351;67.0;-17.22;-21.84;-20.88;298.1;-59.78;-73.48;0.0;1009.5;49.637;37.51172;127.05746;51.6;NaN;;0.0;4.256335;;21 / 44;199060;2020-09-25 14:54:17:032
3.8544;8.6884;0.0808;2.388;9.3662;-1.6562;-0.4922;-1.5154;1.759;-0.7172;1.6823;-0.1605;71.0;11.35;-31.89;-3.86;171.64;-72.76;-124.74;0.0;1009.49;53.568;37.51172;127.05746;51.6;NaN;;0.0;4.256335;;21 / 44;199559;2020-09-25 14:54:17:531
4.7395;8.7866;1.4953;4.2365;8.84;0.2777;-0.0434;-0.4333;0.9304;-0.891;-1.0487;-0.6261;65.0;-6.76;-26.43;-14.38;252.99;-64.35;-86.25;0.0;1009.49;55.831;37.51172;127.05746;51.6;NaN;;0.0;4.256335;;21 / 44;200059;2020-09-25 14:54:18:031
4.0868;8.5399;1.2186;5.0533;8.3562;0.8987;-0.4604;0.1493;0.2964;0.0225;1.1771;0.0616;62.0;-10.57;-22.8;-17.25;283.43;-61.88;-71.89;0.0;1009.49;59.916;37.51172;127.05746;51.6;NaN;;0.0;4.256335;;20 / 44;200559;2020-09-25 14:54:18:531
7.371;8.3207;-1.232;3.5323;9.1481;-0.071;-1.0555;-0.3048;-0.2609;-0.3961;1.7905;0.3724;53.0;-2.41;-28.84;-14.94;239.48;-68.88;-91.15;0.0;1009.49;56.636;37.51172;127.05746;51.6;NaN;;0.0;4.256335;;20 / 44;201059;2020-09-25 14:54:19:031
7.3925;7.1745;-4.515;3.7475;9.0224;0.8497;1.3253;-0.4995;0.8542;0.8708;2.2901;-0.1986;53.0;-3.61;-25.0;-14.34;307.97;-63.5;-77.12;0.0;1009.49;53.711;37.51172;127.05746;51.6;NaN;;0.0;4.256335;;20 / 44;201559;2020-09-25 14:54:19:531
3.1633;8.6357;1.324;4.9777;8.357;1.2462;-1.2629;0.7013;-0.1979;-0.2284;-0.3845;-0.098;57.0;-11.57;-21.18;-17.87;275.32;-53.92;-72.48;0.0;1009.49;51.505;37.51172;127.05746;51.6;NaN;;0.0;4.256335;;20 / 44;202059;2020-09-25 14:54:20:031
4.2149;8.8669;0.1239;4.2837;8.6496;1.7334;0.3618;0.0978;0.0326;0.7857;0.0308;-0.2458;57.0;-8.2;-19.16;-22.2;277.64;-56.06;-68.16;0.0;1009.49;61.523;37.511723;127.05746;51.85;NaN;;0.0;4.3188;;20 / 44;202559;2020-09-25 14:54:20:531
-0.5389;7.5218;0.0568;3.7826;8.9417;1.3815;4.3356;-0.639;-2.1913;1.1289;-1.7306;-1.5478;58.0;1.04;-23.06;-8.82;229.6;-65.75;-69.94;0.0;1009.49;58.026;37.511723;127.05746;51.85;NaN;;0.0;4.3188;;20 / 44;203059;2020-09-25 14:54:21:031
6.1505;8.8585;3.2991;5.8632;7.527;2.2668;-2.0638;1.6818;-0.1488;-1.1035;-0.5914;2.1865;53.0;-26.98;1.64;-13.83;352.27;-50.13;-68.86;0.0;1009.51;45.925;37.511723;127.05746;51.85;NaN;;0.0;4.3188;;20 / 44;203559;2020-09-25 14:54:21:531
6.7194;9.1747;-3.5556;3.9467;8.8874;-1.2682;1.2336;-0.1219;1.7406;1.0032;2.1487;0.1759;39.0;0.05;-21.51;-2.76;196.66;-61.92;-78.3;0.0;1009.52;48.701;37.511723;127.05746;51.85;NaN;;0.0;4.3188;;20 / 44;204059;2020-09-25 14:54:22:031
5.7876;6.8487;3.1973;5.9029;7.4949;2.2701;0.9366;0.5742;1.0465;2.2261;3.4706;-1.2998;61.0;-16.6;-3.58;-19.73;320.11;-49.84;-68.96;0.0;1009.51;60.266;37.51173;127.05746;51.78;NaN;;0.48;4.392268;325.8;19 / 44;204560;2020-09-25 14:54:22:532
7.1182;11.5989;2.2031;4.0931;8.9112;0.0877;-0.3356;-0.0883;1.3317;-0.5346;1.2719;0.6702;48.0;-16.81;-6.1;-17.19;308.59;-65.32;-88.77;0.0;1009.5;59.587;37.51173;127.05746;51.78;NaN;;0.48;4.392268;325.8;19 / 44;205059;2020-09-25 14:54:23:031
2.8447;6.36;0.3203;4.5534;8.6036;1.1894;-0.9105;0.696;-0.3105;0.2412;0.1791;0.2751;64.0;-19.96;-8.86;-17.21;325.26;-61.32;-75.36;0.0;1009.5;55.95;37.51174;127.05746;51.19;NaN;;0.86;4.240886;331.8;20 / 44;205559;2020-09-25 14:54:23:531
4.6701;7.8464;0.1287;4.3495;8.7071;1.1994;-0.0169;-0.4308;0.3531;0.04;0.4837;0.0161;59.0;-20.28;-14.38;-16.74;323.0;-62.61;-74.58;0.0;1009.49;51.145;37.51174;127.05746;51.19;NaN;;0.86;4.240886;331.8;20 / 44;206060;2020-09-25 14:54:24:032
4.4137;7.1134;1.1851;3.899;8.9886;0.4169;0.1046;0.169;0.1914;-0.6317;-0.2241;0.1761;40.0;-16.19;-22.26;-15.91;308.26;-67.3;-76.47;0.0;1009.49;51.514;37.511745;127.05745;51.17;NaN;;0.86;3.968342;296.3;20 / 44;206559;2020-09-25 14:54:24:531
4.809;8.2009;1.3635;4.2329;8.7467;1.3221;0.84;-0.2994;-0.1438;0.4504;0.0162;-0.0805;59.0;-18.15;-17.51;-13.71;325.22;-60.8;-70.13;0.0;1009.5;47.598;37.511745;127.05745;51.17;NaN;;0.86;3.968342;296.3;20 / 44;207059;2020-09-25 14:54:25:031
3.5238;8.2848;1.863;4.4372;8.607;1.5496;-0.5699;0.414;1.0225;0.7553;1.7237;0.4005;73.0;-16.39;-16.25;-13.5;312.7;-62.04;-76.53;0.0;1009.5;48.946;37.511753;127.05744;51.34;NaN;;0.72;3.790092;296.6;21 / 44;207559;2020-09-25 14:54:25:531
2.4327;8.1758;0.6772;4.0945;8.8954;0.5262;-0.5889;-0.5317;0.2509;0.191;0.5043;0.2041;64.0;-5.31;-15.85;-8.94;267.76;-68.19;-83.06;0.0;1009.49;47.993;37.511753;127.05744;51.34;NaN;;0.72;3.790092;296.6;21 / 44;208059;2020-09-25 14:54:26:031
4.7515;9.0956;2.1564;4.1469;8.8092;1.1712;0.2594;-0.1216;0.2174;-0.1113;-0.2125;0.0761;46.0;-6.53;-8.56;-14.51;293.84;-59.85;-71.62;0.0;1009.49;45.834;37.511757;127.05744;50.47;NaN;;0.68;3.858394;296.8;22 / 44;208559;2020-09-25 14:54:26:531
5.6929;8.1123;1.203;4.9693;8.3755;1.1517;0.8782;0.0561;-0.0462;0.6452;0.318;-0.0727;57.0;-6.16;-5.35;-14.64;291.73;-58.66;-76.95;0.0;1009.5;52.185;37.511757;127.05744;50.47;NaN;;0.68;3.858394;296.8;22 / 44;209059;2020-09-25 14:54:27:031
6.8404;6.9277;1.2689;4.2615;8.8178;0.5068;3.0078;-0.92;-3.5228;-2.3979;-4.0255;-0.3893;43.0;-1.46;-4.69;-13.44;258.82;-64.24;-96.37;0.0;1009.5;52.384;37.511765;127.057434;50.32;NaN;;0.71;3.790092;297.1;22 / 44;209559;2020-09-25 14:54:27:531
4.3539;8.4117;1.524;4.925;8.2192;2.0879;-0.6825;0.5712;-0.639;-0.5017;-0.6027;0.6672;30.0;-11.36;5.42;-18.12;328.79;-62.22;-63.0;0.0;1009.51;59.218;37.511765;127.057434;50.32;NaN;;0.71;3.790092;297.1;22 / 44;210059;2020-09-25 14:54:28:031
2.9501;9.2022;1.9516;4.5204;8.6885;0.4952;0.9764;0.2402;1.979;1.2357;1.062;-0.4707;50.0;-12.75;-1.95;-20.26;303.99;-62.37;-83.75;0.0;1009.52;45.841;37.51177;127.057434;50.95;NaN;;0.5;3.790092;296.8;22 / 44;210559;2020-09-25 14:54:28:531
3.7658;7.5853;1.4929;4.3606;8.7632;0.601;0.4846;-1.034;1.0722;-0.5325;-1.9982;0.2727;45.0;-15.13;-3.7;-21.69;305.66;-63.33;-82.15;0.0;1009.52;48.743;37.51177;127.057434;50.95;NaN;;0.5;3.790092;296.8;22 / 44;211059;2020-09-25 14:54:29:031
4.603;8.7219;-1.8105;4.832;8.4258;1.352;-0.0319;0.1196;0.0227;-0.1796;0.7543;-0.2681;54.0;-10.68;-1.39;-28.31;300.85;-60.0;-75.95;0.0;1009.52;56.401;37.511772;127.05743;51.58;NaN;;0.64;3.790092;296.8;21 / 44;211559;2020-09-25 14:54:29:531
4.4629;8.7878;1.0533;4.3656;8.733;0.92;-0.2106;-0.0165;-0.1311;-0.8352;-0.8886;0.1182;49.0;-8.43;-9.38;-30.5;287.58;-63.92;-77.81;0.0;1009.51;55.28;37.511772;127.05743;51.58;NaN;;0.64;3.790092;296.8;21 / 44;212059;2020-09-25 14:54:30:031
2.9657;8.6525;2.6583;4.282;8.3809;2.7559;-0.1414;0.3909;-0.734;0.3503;-0.8589;-0.1006;37.0;-30.05;0.24;-29.42;338.4;-60.47;-64.98;0.0;1009.52;55.953;37.511772;127.05743;51.58;NaN;;0.64;3.790092;296.8;21 / 44;212559;2020-09-25 14:54:30:531
4.4401;8.9256;2.1049;4.0633;8.8843;0.8538;1.4578;-0.7075;-1.0116;-0.0123;-2.045;-0.58;50.0;-23.49;-17.33;-23.0;316.38;-61.19;-74.24;0.0;1009.53;48.734;37.511772;127.05743;51.58;NaN;;0.64;3.790092;296.8;21 / 44;213060;2020-09-25 14:54:31:032
6.3265;8.2069;2.0534;5.7148;7.7128;2.0062;-0.362;1.3306;-0.4044;-0.1257;1.2978;-0.0883;40.0;-29.43;-10.28;-25.05;313.35;-60.71;-86.27;0.0;1009.52;46.514;37.511776;127.05743;50.63;NaN;;0.68;3.860622;346.8;21 / 44;213559;2020-09-25 14:54:31:531
5.2965;9.0417;1.4749;4.0008;8.9517;0.1758;-0.3761;-0.3758;0.1069;-1.1509;-0.2826;0.6548;32.0;-8.98;-24.73;-19.73;270.88;-71.72;-91.18;0.0;1009.54;57.474;37.511776;127.05743;50.63;NaN;;0.68;3.860622;346.8;21 / 44;214059;2020-09-25 14:54:32:031
9.4622;10.0311;0.149;4.615;8.6476;0.3035;2.379;0.6538;-0.1213;0.937;-0.3461;-1.9032;60.0;4.32;-20.85;-8.57;210.67;-51.53;-85.62;0.0;1009.53;56.096;37.511784;127.05742;50.75;NaN;;0.91;3.790092;346.7;21 / 44;214559;2020-09-25 14:54:32:531
7.6656;8.9279;3.4356;7.0879;6.3444;2.3834;0.1905;2.8418;1.3714;-1.1363;-0.7956;0.9934;70.0;-14.39;-0.2;-19.92;311.81;-53.51;-76.94;0.0;1009.53;54.354;37.511784;127.05742;50.75;NaN;;0.91;3.790092;346.7;21 / 44;215060;2020-09-25 14:54:33:032
4.6293;5.942;3.1985;3.9785;8.8856;1.1778;0.0213;0.8816;-3.1693;-3.388;-3.2132;0.3826;32.0;5.16;-6.1;-7.29;219.85;-58.97;-94.76;0.0;1009.53;57.593;37.511795;127.05741;50.91;NaN;;1.51;3.790092;346.8;21 / 44;215559;2020-09-25 14:54:33:531
3.0064;0.2659;-0.2977;3.832;9.0067;0.6042;1.2464;-1.4559;0.7113;-0.8082;-4.3481;0.1055;40.0;1.09;0.2;-13.44;271.34;-59.42;-84.04;0.0;1009.53;55.973;37.511795;127.05741;50.91;NaN;;1.51;3.790092;346.8;21 / 44;216059;2020-09-25 14:54:34:031
7.1362;9.098;5.4346;6.2039;7.1889;2.4498;0.4496;0.2431;0.6963;0.5608;-0.6524;1.2278;46.0;-10.74;20.0;-8.82;347.37;-64.82;-69.73;0.0;1009.53;49.523;37.511806;127.0574;51.04;NaN;;1.92;3.790092;333.3;19 / 44;216559;2020-09-25 14:54:34:531
9.3544;22.7978;5.4011;3.3246;8.5462;-3.4756;0.9581;-2.9015;-7.8131;-3.6758;-6.1964;-2.1695;41.0;3.04;-7.73;-2.74;197.62;-52.8;-100.25;0.0;1009.54;63.69;37.511806;127.0574;51.04;NaN;;1.92;3.790092;333.3;19 / 44;217059;2020-09-25 14:54:35:031
7.6752;14.8508;2.7158;7.5229;6.2765;0.4273;-0.3115;4.6228;1.3229;-2.0245;-2.2675;0.1809;58.0;-22.01;-7.42;-20.59;255.79;-83.73;-133.47;0.0;1009.53;64.152;37.511826;127.05739;50.83;NaN;;1.7;3.790092;348.6;19 / 44;217559;2020-09-25 14:54:35:531
-0.1772;3.9262;3.1506;2.6557;9.0377;-2.7271;8.8;1.8176;-2.2837;-2.1493;-2.6952;-3.5227;5.0;22.79;-1.89;9.65;130.51;-52.29;-111.7;0.0;1009.51;51.117;37.511826;127.05739;50.83;NaN;;1.7;3.790092;348.6;19 / 44;218059;2020-09-25 14:54:36:031
6.6942;7.6536;2.2079;7.5667;6.1146;1.2356;-1.0165;0.885;1.2384;-0.5581;-1.8428;0.7209;63.0;9.31;4.81;-16.7;268.11;-51.61;-76.39;0.0;1009.52;59.247;37.51184;127.05738;51.54;NaN;;2.31;3.790092;324.8;20 / 44;218559;2020-09-25 14:54:36:531
6.2439;9.4454;-1.6224;3.6922;9.0815;-0.2545;-0.0293;1.1746;0.7577;-0.5614;0.3567;-0.5163;8.0;0.51;5.38;-28.59;268.25;-67.83;-93.94;0.0;1009.54;57.579;37.51184;127.05738;51.54;NaN;;2.31;3.790092;324.8;20 / 44;219059;2020-09-25 14:54:37:031
1.7895;11.8504;0.2951;6.4687;7.3662;0.2565;2.4969;0.2077;-0.1945;2.2157;3.6932;-2.0331;27.0;-16.66;14.82;-28.14;310.59;-49.57;-87.9;0.0;1009.55;57.966;37.511856;127.057365;51.5;NaN;;2.03;3.790092;320.2;20 / 44;219559;2020-09-25 14:54:37:531
5.4175;3.8136;1.4629;5.93;7.5623;1.9536;1.8534;0.49;1.9949;-0.6836;-4.35;0.112;65.0;-48.24;6.95;3.44;25.02;-64.78;-69.16;0.0;1009.56;51.57;37.511856;127.057365;51.5;NaN;;2.03;3.790092;320.2;20 / 44;220059;2020-09-25 14:54:38:031
5.4354;14.1896;1.1659;4.8594;8.4614;-0.9798;4.6761;-1.579;-0.1784;2.6052;0.9865;-1.9561;18.0;-20.96;-26.7;-17.38;265.37;-50.82;-92.89;0.0;1009.55;56.916;37.51187;127.05735;52.41;NaN;;2.28;3.790092;331.0;20 / 44;220560;2020-09-25 14:54:38:532
2.2938;8.4417;0.1287;5.6148;7.9984;0.8181;-0.9879;1.2217;0.6994;-0.9689;-0.3284;2.1882;41.0;-34.51;-16.64;-17.19;321.88;-62.32;-91.37;0.0;1009.56;58.58;37.51187;127.05735;52.41;NaN;;2.28;3.790092;331.0;20 / 44;221060;2020-09-25 14:54:39:032
1.2541;9.9796;-1.8093;3.2576;9.247;0.2273;-1.0394;-0.9943;-0.9514;-2.0134;-0.9737;1.5824;17.0;-8.41;-28.52;-3.39;198.24;-53.39;-94.78;0.0;1009.56;52.739;37.51189;127.05735;52.46;NaN;;1.94;3.790092;1.9;20 / 44;221559;2020-09-25 14:54:39:531
22.6218;17.8751;8.32;6.523;7.1871;1.4026;3.8503;0.5501;2.1936;2.3428;0.6817;-2.4087;41.0;-24.76;-0.1;-6.39;18.92;-50.02;-61.79;0.0;1009.56;52.843;37.51189;127.05735;52.46;NaN;;1.94;3.790092;1.9;20 / 44;222059;2020-09-25 14:54:40:031
-1.8361;-0.6396;0.3059;2.7064;9.2631;1.744;-0.5158;-2.2895;0.3994;0.11;-1.8805;0.2587;34.0;-24.16;-9.25;8.46;356.15;-76.94;-111.88;0.0;1009.54;62.475;37.511906;127.05736;51.67;NaN;;1.37;3.790092;15.9;22 / 44;222560;2020-09-25 14:54:40:532
2.071;-3.592;0.4652;8.1111;5.3119;1.4715;0.0642;-3.2634;-0.0044;5.3021;4.3202;0.1657;64.0;-15.91;-9.26;-21.39;279.54;-32.8;-79.72;0.0;1009.57;63.537;37.511906;127.05736;51.67;NaN;;1.37;3.790092;15.9;22 / 44;223059;2020-09-25 14:54:41:031
-0.5856;7.9302;-2.2285;2.671;9.4313;-0.2952;7.4334;2.6113;-1.0001;-0.8997;-2.0957;-3.1655;11.0;17.97;-35.95;10.81;161.52;-53.41;-92.77;0.0;1009.53;60.454;37.51192;127.057365;51.52;NaN;;1.64;3.790092;14.5;22 / 44;223559;2020-09-25 14:54:41:531
10.1952;1.9727;3.5374;2.106;9.3874;-1.9002;3.1121;0.5259;6.894;-2.6486;-2.8101;-3.6006;32.0;-35.81;-37.24;5.71;295.75;-54.96;-121.19;0.0;1009.53;48.697;37.51192;127.057365;51.52;NaN;;1.64;3.790092;14.5;22 / 44;224059;2020-09-25 14:54:42:031
4.3072;11.957;2.7505;5.0117;8.358;-1.0944;3.6382;4.0381;3.0919;-0.23;-5.3232;3.7198;24.0;-49.51;-37.0;-5.79;128.17;-84.91;42.19;0.0;1009.54;60.606;37.511936;127.057365;51.33;NaN;;1.7;3.790092;0.6;22 / 44;224559;2020-09-25 14:54:42:531
8.9149;5.6976;3.329;7.2592;6.5814;-0.3997;-4.9587;0.7629;-2.2231;0.5796;1.5464;-1.3241;5.0;-37.02;-40.95;-3.1;221.36;-42.15;-93.15;0.0;1009.54;60.48;37.511936;127.057365;51.33;NaN;;1.7;3.790092;0.6;22 / 44;225059;2020-09-25 14:54:43:031
6.7517;8.8261;1.5432;3.1125;7.8578;4.9737;4.7918;1.4066;-3.4214;-1.8269;-6.2968;-0.6077;26.0;24.31;-42.55;-9.18;195.45;-73.92;-88.55;0.0;1009.52;55.771;37.511944;127.05736;51.31;NaN;;0.69;3.790092;11.6;22 / 44;225559;2020-09-25 14:54:43:531
9.9737;10.4658;2.3972;6.53;7.3078;0.3551;-1.1658;-0.3366;0.1691;0.9147;1.341;0.3333;3.0;-13.35;-26.25;-8.07;224.77;-48.18;-86.89;0.0;1009.51;63.232;37.511944;127.05736;51.31;NaN;;0.69;3.790092;11.6;22 / 44;226059;2020-09-25 14:54:44:031
5.8714;4.1957;1.1671;5.8383;7.682;1.7529;-1.5474;-0.0448;0.5105;3.3089;3.7795;1.8094;34.0;-24.1;-13.4;-25.97;345.77;-50.35;-45.74;0.0;1009.53;51.843;37.51195;127.05736;51.11;NaN;;0.95;4.13667;11.7;22 / 44;226560;2020-09-25 14:54:44:532
6.093;9.2657;-2.1219;5.8232;7.889;-0.1587;0.1711;2.4935;-1.241;0.0198;2.5484;-1.7143;5.0;4.93;-37.75;1.23;177.55;-53.56;-91.56;0.0;1009.51;52.837;37.51195;127.05736;51.11;NaN;;0.95;4.13667;11.7;22 / 44;227059;2020-09-25 14:54:45:031
5.4115;7.4416;-1.0188;4.1839;8.8199;0.935;0.8032;-1.2754;4.2597;1.5175;0.429;-0.0921;51.0;-21.38;-20.8;-19.95;304.5;-44.66;-60.45;0.0;1009.49;54.148;37.511963;127.05736;50.27;NaN;;1.61;4.969653;11.9;24 / 44;227559;2020-09-25 14:54:45:531
3.8436;8.1889;2.0834;4.6962;7.9883;3.2098;-0.8318;0.4265;-1.2938;-0.6602;0.6403;-0.3165;23.0;-18.23;-21.52;-25.8;295.55;-53.4;-67.57;0.0;1009.55;54.1;37.511963;127.05736;50.27;NaN;;1.61;4.969653;11.9;24 / 44;228060;2020-09-25 14:54:46:032
6.2702;9.3843;1.7648;4.476;8.7189;0.3405;1.1849;0.2872;0.6026;0.1056;0.1362;-0.987;7.0;-10.09;-25.32;-13.89;257.1;-57.85;-78.84;0.0;1009.55;53.789;37.51199;127.05735;50.54;NaN;;2.91;4.749273;337.2;25 / 44;228559;2020-09-25 14:54:46:531
3.5729;7.9949;1.4665;4.8108;8.3313;1.9014;0.1268;-0.0837;0.154;-0.7766;-2.3438;-0.8697;40.0;-28.01;-17.9;-21.22;335.72;-51.39;-64.7;0.0;1009.51;53.008;37.51199;127.05735;50.54;NaN;;2.91;4.749273;337.2;25 / 44;229060;2020-09-25 14:54:47:032
2.7189;7.8176;1.8091;5.2199;8.0879;1.8732;0.8347;0.6866;0.9626;-0.0761;0.1089;-0.3841;45.0;-32.11;-17.95;-13.74;353.98;-59.48;-69.99;0.0;1009.54;52.138;37.51201;127.05734;50.38;NaN;;2.33;5.251484;333.7;25 / 44;229559;2020-09-25 14:54:47:531
3.9706;6.7229;1.2114;5.0794;8.2603;1.4622;-0.162;-0.1587;0.2679;-0.1886;0.3169;0.2576;30.0;-28.46;-22.27;-12.89;341.06;-57.39;-73.94;0.0;1009.56;53.51;37.51201;127.05734;50.38;NaN;;2.33;5.251484;333.7;25 / 44;230059;2020-09-25 14:54:48:031
2.7573;7.2823;2.0666;4.4334;8.6732;1.1362;-0.7157;0.1059;1.0895;0.6426;0.493;-0.2369;17.0;-24.31;-21.27;-3.73;30.54;-57.39;-68.34;0.0;1009.54;51.893;37.51203;127.05733;50.36;NaN;;2.64;4.911395;339.2;24 / 44;230559;2020-09-25 14:54:48:531
4.0496;8.4872;2.2642;4.5034;8.5009;1.9037;-0.3041;0.1906;0.4014;0.2666;0.0567;-0.1048;12.0;-20.45;-11.62;-5.84;10.66;-60.1;-67.09;0.0;1009.52;52.511;37.51203;127.05733;50.36;NaN;;2.64;4.911395;339.2;24 / 44;231059;2020-09-25 14:54:49:031
5.1504;9.1376;2.0714;4.1927;8.5777;2.2393;1.0754;0.1759;0.6605;0.2753;-0.5098;0.1059;16.0;-16.74;-10.9;-9.99;347.29;-66.29;-68.36;0.0;1009.51;54.849;37.512054;127.05732;50.59;NaN;;2.57;4.76333;334.8;24 / 44;231559;2020-09-25 14:54:49:531
5.0653;8.3722;3.541;3.9263;8.7491;2.0514;0.6064;0.15;-0.282;-0.2828;-0.5789;0.1039;12.0;-13.14;-9.32;-11.64;330.09;-65.85;-68.9;0.0;1009.52;51.156;37.512054;127.05732;50.59;NaN;;2.57;4.76333;334.8;24 / 44;232059;2020-09-25 14:54:50:031
4.6425;10.0886;2.6511;4.3817;8.4652;2.3048;0.0386;0.4989;-0.4938;-0.2239;-0.7993;0.4788;9.0;-10.16;-8.67;-14.17;312.24;-62.16;-68.66;0.0;1009.52;53.649;37.51208;127.057304;49.88;NaN;;2.78;4.748533;333.8;24 / 44;232559;2020-09-25 14:54:50:531
2.5992;9.552;-0.7708;3.7202;9.0531;0.6093;2.3604;1.0069;0.5821;-0.8502;-0.3435;-1.063;8.0;-5.86;-13.37;-10.57;285.05;-63.34;-71.95;0.0;1009.49;52.149;37.51208;127.057304;49.88;NaN;;2.78;4.748533;333.8;24 / 44;233059;2020-09-25 14:54:51:031
9.3257;12.8302;1.7612;4.5071;8.5932;1.419;1.3265;-1.0587;0.9713;0.8076;-0.0853;-1.124;43.0;-17.56;-8.9;-13.39;332.08;-50.47;-69.12;0.0;1009.51;55.306;37.512096;127.0573;49.81;NaN;;2.33;4.832342;333.7;23 / 44;233559;2020-09-25 14:54:51:531
4.706;9.419;2.0151;4.257;8.5785;2.111;0.4042;-0.2766;0.1751;0.9831;0.7455;-0.121;35.0;-18.38;-8.42;-17.79;332.07;-56.28;-63.94;0.0;1009.55;54.738;37.512096;127.0573;49.81;NaN;;2.33;4.832342;333.7;23 / 44;234060;2020-09-25 14:54:52:032
3.3514;7.6799;1.8642;4.6234;8.4319;1.9232;-0.4983;-0.8049;-0.5272;-0.8008;-0.7387;-0.1602;22.0;-17.09;-7.51;-21.99;317.72;-62.98;-71.4;0.0;1009.53;53.598;37.51212;127.05729;50.02;NaN;;2.32;4.750659;345.3;20 / 44;234559;2020-09-25 14:54:52:531
5.9912;8.8561;1.4318;4.1261;8.7431;1.6446;0.5163;0.3258;0.0093;0.2452;-0.4038;-0.1682;14.0;-12.92;-9.32;-20.86;312.9;-61.3;-67.31;0.0;1009.53;51.78;37.51212;127.05729;50.02;NaN;;2.32;4.750659;345.3;20 / 44;235060;2020-09-25 14:54:53:032
3.8472;9.5999;1.8786;3.9777;8.8076;1.6654;1.1718;-0.1109;1.8063;0.6816;1.0305;-0.9612;27.0;-16.43;-7.47;-18.8;336.13;-58.55;-57.29;0.0;1009.52;51.323;37.51214;127.05728;49.77;NaN;;2.35;4.585159;351.5;20 / 44;235559;2020-09-25 14:54:53:531
6.5385;9.77;2.7649;5.5782;7.5475;2.8442;-1.0567;0.5618;-0.4785;0.5058;-0.5598;-0.7029;49.0;-31.03;0.69;-21.59;351.71;-63.09;-58.0;0.0;1009.54;51.86;37.51214;127.05728;49.77;NaN;;2.35;4.585159;351.5;20 / 44;236059;2020-09-25 14:54:54:031
3.5502;9.7568;-0.2582;3.9916;8.8936;1.0681;-0.2258;0.2616;-1.2906;-1.611;-0.0532;0.5351;6.0;-12.91;-16.6;-24.47;288.9;-62.75;-79.95;0.0;1009.51;50.383;37.51216;127.05728;49.63;NaN;;1.92;4.399114;350.2;20 / 44;236560;2020-09-25 14:54:54:532
4.1215;8.5075;0.991;4.908;8.0673;2.6456;1.0328;0.3134;-0.2379;0.6576;2.8722;0.7151;17.0;-16.42;-11.65;-35.43;308.44;-55.35;-61.67;0.0;1009.51;48.739;37.51216;127.05728;49.63;NaN;;1.92;4.399114;350.2;20 / 44;237059;2020-09-25 14:54:55:031
2.7884;12.6697;2.905;3.3315;9.1838;0.8538;0.668;0.8259;-2.5899;-2.091;-1.3144;0.482;18.0;-12.3;-26.89;-26.63;273.04;-67.74;-88.75;0.0;1009.47;56.006;37.512177;127.05727;51.27;NaN;;1.95;4.189749;331.1;20 / 44;237559;2020-09-25 14:54:55:531
3.4615;8.9723;1.5755;6.2947;6.6786;3.4559;0.9355;1.279;1.0482;2.4801;1.8479;-0.557;9.0;-19.02;-29.7;-39.9;275.48;-42.92;-61.23;0.0;1009.51;57.899;37.512177;127.05727;51.27;NaN;;1.95;4.189749;331.1;20 / 44;238059;2020-09-25 14:54:56:031
4.0496;7.0331;3.1709;4.424;8.1962;3.0693;1.2034;1.5947;-1.1908;-2.8362;-1.895;0.1437;28.0;-22.93;-31.14;-40.75;250.71;-70.3;-87.47;0.0;1009.46;53.561;37.512188;127.05726;50.38;NaN;;1.96;4.356629;324.8;21 / 44;238559;2020-09-25 14:54:56:531
4.4617;6.9948;0.6952;4.0681;8.8081;1.4277;1.6331;-0.0217;0.1373;0.3829;0.5003;0.2281;13.0;-14.04;-36.55;-20.26;276.2;-63.92;-70.66;0.0;1009.51;62.506;37.512188;127.05726;50.38;NaN;;1.96;4.356629;324.8;21 / 44;239061;2020-09-25 14:54:57:033
3.4328;7.4643;1.748;4.5526;8.3507;2.3893;0.5606;-0.1087;0.3648;1.0039;1.6281;0.1049;41.0;-20.45;-27.78;-27.87;293.75;-55.17;-67.4;0.0;1009.52;57.273;37.512207;127.05724;51.52;NaN;;2.23;4.288696;337.4;23 / 44;239559;2020-09-25 14:54:57:531
4.7395;10.4623;0.4341;4.2164;8.758;1.2998;0.0494;-0.321;0.4004;0.068;-0.1216;0.0584;7.0;-13.91;-33.12;-16.69;277.39;-63.26;-72.87;0.0;1009.5;55.457;37.512207;127.05724;51.52;NaN;;2.23;4.288696;337.4;23 / 44;240059;2020-09-25 14:54:58:031
4.5;7.1876;2.4068;5.0663;8.145;2.0401;0.372;0.1009;0.625;1.6658;1.9785;0.0495;26.0;-23.2;-19.54;-21.2;316.76;-53.49;-68.02;0.0;1009.52;57.424;37.512222;127.057236;51.93;NaN;;2.31;4.159523;340.0;24 / 44;240560;2020-09-25 14:54:58:532
5.433;7.4248;3.0619;4.0277;8.7388;1.8924;0.9306;0.0484;-0.3019;-1.4486;-1.5996;0.425;36.0;-11.1;-27.04;-23.69;288.53;-63.01;-64.83;0.0;1009.5;53.111;37.512222;127.057236;51.93;NaN;;2.31;4.159523;340.0;24 / 44;241060;2020-09-25 14:54:59:032
2.2147;8.4908;1.0964;3.5906;8.971;1.6731;-0.3569;-0.6954;-1.5502;-0.6378;-0.8498;0.1353;5.0;-3.16;-28.52;-22.59;265.97;-63.98;-64.43;0.0;1009.47;55.417;37.51225;127.057236;52.29;NaN;;2.21;4.299691;339.6;24 / 44;241559;2020-09-25 14:54:59:531
4.0365;10.5856;1.7672;3.6599;8.8078;2.2801;0.4677;0.3078;-0.565;-0.5231;-1.538;0.3634;10.0;-3.35;-24.34;-27.32;282.06;-63.92;-58.08;0.0;1009.48;54.221;37.51225;127.057236;52.29;NaN;;2.21;4.299691;339.6;24 / 44;242060;2020-09-25 14:55:00:032
5.6738;7.1218;3.7878;4.4505;8.6521;1.2266;0.0199;1.9492;-1.0515;0.4171;0.3964;-0.5851;7.0;-1.18;-31.5;-15.86;235.39;-61.92;-74.59;0.0;1009.51;54.614;37.512268;127.05721;52.65;NaN;;2.32;3.920455;331.5;25 / 44;242559;2020-09-25 14:55:00:531
3.4831;8.1925;1.4701;4.8534;8.2445;2.1548;0.2186;0.2307;4.1575;1.4621;1.8576;-0.5398;31.0;-16.32;-24.97;-28.36;301.97;-56.8;-59.03;0.0;1009.49;57.126;37.512268;127.05721;52.65;NaN;;2.32;3.920455;331.5;25 / 44;243060;2020-09-25 14:55:01:032
4.6389;8.8405;3.0344;4.3986;8.3694;2.6032;0.5936;1.0915;-0.3446;-0.5775;-1.6488;0.0242;14.0;-9.92;-28.14;-18.39;273.17;-58.59;-59.38;0.0;1009.5;56.728;37.512287;127.057205;52.13;NaN;;2.15;4.03924;326.8;25 / 44;243559;2020-09-25 14:55:01:531
4.7144;9.0453;1.7899;3.4274;9.0791;1.4117;1.2238;-0.2895;-2.7481;-0.6888;-1.0148;0.2327;14.0;-4.85;-20.71;-20.69;282.08;-67.79;-67.61;0.0;1009.52;54.045;37.512287;127.057205;52.13;NaN;;2.15;4.03924;326.8;25 / 44;244059;2020-09-25 14:55:02:031
3.9933;8.6908;1.7947;4.3007;8.5635;2.0834;0.1945;0.9213;-1.2639;0.2386;0.882;0.3585;8.0;-13.13;-14.17;-22.27;306.12;-60.91;-67.19;0.0;1009.5;50.3;37.512306;127.0572;52.51;NaN;;2.41;3.970741;336.0;25 / 44;244560;2020-09-25 14:55:02:532
2.9166;7.8452;0.6197;4.4144;8.6391;1.4316;-0.0759;-0.1354;0.8094;-0.1307;-0.3701;-0.1295;14.0;-17.19;-15.85;-22.21;308.71;-61.45;-71.94;0.0;1009.5;53.914;37.512306;127.0572;52.51;NaN;;2.41;3.970741;336.0;25 / 44;245059;2020-09-25 14:55:03:031
6.2451;16.8738;5.8119;4.8703;8.2854;1.9502;1.1299;4.1156;0.5274;0.728;0.3256;-0.4955;13.0;-14.84;-20.8;-19.29;295.57;-55.84;-67.61;0.0;1009.51;55.339;37.512333;127.05719;52.93;NaN;;2.5;3.790092;346.1;24 / 44;245559;2020-09-25 14:55:03:531
2.8232;5.2389;-0.0845;4.3779;8.535;2.0392;0.7794;0.6566;0.77;0.2028;-0.2794;-0.7982;14.0;-13.71;-22.77;-20.41;293.55;-57.25;-65.05;0.0;1009.49;56.33;37.512333;127.05719;52.93;NaN;;2.5;3.790092;346.1;24 / 44;246059;2020-09-25 14:55:04:031
3.8281;7.65;1.8965;5.1292;8.1028;2.0509;-0.2442;0.1547;1.4575;0.8959;1.0744;0.3356;22.0;-14.65;-18.54;-13.91;304.47;-55.72;-68.21;0.0;1009.5;53.213;37.512344;127.05719;53.4;NaN;;1.39;3.825565;342.2;24 / 44;246559;2020-09-25 14:55:04:531
4.179;8.5818;1.0869;4.3834;8.4472;2.3666;-0.0368;0.0765;-0.1558;-0.1771;-1.1175;0.2252;7.0;-16.55;-20.21;-12.43;327.33;-63.08;-70.52;0.0;1009.48;53.748;37.512344;127.05719;53.4;NaN;;1.39;3.825565;342.2;24 / 44;247059;2020-09-25 14:55:05:031
3.44;9.0405;1.1551;3.9661;8.8898;1.1883;-0.2098;-1.0039;1.0561;-0.1166;-0.3878;0.1511;8.0;-21.3;-17.27;-6.71;349.92;-63.13;-70.18;0.0;1009.49;52.086;37.512367;127.057175;52.86;NaN;;2.73;4.035207;325.5;24 / 44;247560;2020-09-25 14:55:05:532
4.3203;9.9939;0.9874;4.8557;8.358;1.6546;0.5833;0.5164;0.4218;1.0793;1.3277;-0.0627;20.0;-27.81;-10.14;-7.67;6.62;-55.28;-69.9;0.0;1009.5;54.083;37.512367;127.057175;52.86;NaN;;2.73;4.035207;325.5;24 / 44;248059;2020-09-25 14:55:06:031
2.5441;3.2698;1.209;5.1908;8.1316;1.7618;-0.1089;1.0779;2.3083;0.2312;-0.4097;-0.2508;20.0;-29.35;-9.17;-11.71;356.31;-55.5;-69.96;0.0;1009.5;55.216;37.51239;127.05716;52.44;NaN;;3.12;3.952336;335.8;25 / 44;248559;2020-09-25 14:55:06:531
2.7752;7.0487;3.983;4.994;7.9865;2.7287;0.2781;0.2635;-0.0558;-1.1785;-1.2918;0.3646;26.0;-24.45;-13.12;-19.65;343.41;-59.52;-61.1;0.0;1009.49;54.924;37.51239;127.05716;52.44;NaN;;3.12;3.952336;335.8;25 / 44;249059;2020-09-25 14:55:07:031
