ACCELEROMETER X (m/s²);ACCELEROMETER Y (m/s²);ACCELEROMETER Z (m/s²);GRAVITY X (m/s²);GRAVITY Y (m/s²);GRAVITY Z (m/s²);LINEAR ACCELERATION X (m/s²);LINEAR ACCELERATION Y (m/s²);LINEAR ACCELERATION Z (m/s²);GYROSCOPE X (rad/s);GYROSCOPE Y (rad/s);GYROSCOPE Z (rad/s);LIGHT (lux);MAGNETIC FIELD X (μT);MAGNETIC FIELD Y (μT);MAGNETIC FIELD Z (μT);ORIENTATION Z (azimuth °);ORIENTATION X (pitch °);ORIENTATION Y (roll °);PROXIMITY (m);ATMOSPHERIC PRESSURE (hPa);SOUND LEVEL (dB);LOCATION Latitude : ;LOCATION Longitude : ;LOCATION Altitude ( m);LOCATION Altitude-google ( m);LOCATION Altitude-atmospheric pressure ( m);LOCATION Speed ( m/s);LOCATION Accuracy ( m);LOCATION ORIENTATION (°);Satellites in range;Time since start in ms ;YYYY-MO-DD HH-MI-SS_SSS
-0.6857;3.6512;8.9781;-0.7716;3.6694;9.0615;-0.075;-0.0031;0.0913;0.0343;0.0521;0.0129;10587;-32.08;-15.11;-50.85;83.72;-21.85;4.83;5;1010.55;43.871;37.517975;126.76524;33.85;NaN;;0;5.638741;;25 / 43;9;2021-05-13 12:03:33:620
-1.1699;4.0547;8.0798;-1.0687;3.908;8.9306;0.1361;-0.1658;0.2435;0.2089;0.1332;-0.3186;11614;-32.6;-16.5;-49.2;85.98;-22.57;5.81;5;1010.56;44.45;37.517975;126.76524;33.85;NaN;;0;5.638741;;25 / 43;508;2021-05-13 12:03:34:119
-0.0424;2.1236;13.2109;2.2721;1.6298;9.3996;1.1807;0.4594;-2.284;-0.7095;0.5185;-1.2257;11793;-45.55;-17.2;-41.78;93.06;-18.63;-1.09;5;1010.56;46.176;37.517975;126.76525;34.66;NaN;;0;4.767556;;26 / 43;1008;2021-05-13 12:03:34:619
2.3275;-0.1668;9.4318;3.2812;0.6141;9.221;0.9508;1.6415;0.497;-1.6751;-1.6481;-2.7306;12321;-44.38;-20.8;-40.33;116.96;-2.09;-8.03;5;1010.58;47.772;37.517975;126.76525;34.66;NaN;;0;4.767556;;26 / 43;1509;2021-05-13 12:03:35:120
6.8289;0.4847;8.7382;4.9982;2.6008;8.0265;1.6494;0.0105;0.8772;1.13;1.0256;0.5872;11700;-32.4;-44.22;-31.37;156.41;-14.68;-27.73;5;1010.54;47.846;37.517952;126.76526;40.33;NaN;;0;4.42711;;32 / 43;2008;2021-05-13 12:03:35:619
5.4676;1.6075;7.73;5.7074;3.4437;7.1929;-0.1806;0.9589;-1.9188;-1.732;0.0399;1.0918;13424;-46.89;-40.42;-16.14;127.98;-25.52;-30.36;5;1010.56;55.337;37.517952;126.76526;40.33;NaN;;0;4.42711;;32 / 43;2509;2021-05-13 12:03:36:120
8.7405;-4.1406;5.0488;9.0584;-1.0774;3.5993;-1.3228;-1.4685;-0.4798;-3.5424;-1.5157;-0.4701;11823;-54.53;-23.4;0.34;123.95;-1.25;-53.5;5;1010.63;58.447;37.51794;126.76526;35.09;NaN;;0.46;4.847614;147.3;32 / 43;3008;2021-05-13 12:03:36:619
7.0527;-1.9446;4.0578;7.9974;-2.3326;5.174;-1.577;-0.247;-0.9332;-0.5026;-0.0246;0.9625;11359;-55.02;-14.04;-3.9;133.43;13.76;-57.1;5;1010.6;58.196;37.51794;126.76526;35.09;NaN;;0.46;4.847614;147.3;32 / 43;3508;2021-05-13 12:03:37:119
7.8555;-3.9503;1.5911;7.738;-5.189;3.0608;-0.1889;-0.9861;0.5964;0.3702;-0.9435;-0.2209;9457;-57.74;-4.28;2.76;142.42;31.95;-68.42;5;1010.56;63.608;37.517914;126.76526;35.26;NaN;;1.67;6.296279;186.4;33 / 43;4008;2021-05-13 12:03:37:619
7.501;-7.6281;0.5549;7.5025;-6.3135;0.1485;0.9956;1.0186;1.6848;0.633;0.1381;1.6415;5826;-56.85;-6.15;-2.04;179.62;34.03;-87.74;5;1010.53;61.827;37.517914;126.76526;35.26;NaN;;1.67;6.296279;186.4;33 / 43;4507;2021-05-13 12:03:38:118
6.6455;-3.0349;-3.5161;8.6692;-4.5343;0.6752;-0.6903;-2.8485;-0.2794;-1.7127;0.4319;-1.6713;7220;-42.93;-1.36;12.58;151.31;46.83;-84.62;5;1010.59;62.025;37.5179;126.76528;34.62;NaN;;1.2;7.785137;112.2;33 / 43;5008;2021-05-13 12:03:38:619
6.3765;1.4234;4.1272;8.1457;2.7644;4.7092;1.128;-3.767;0.395;0.7566;1.9647;-1.1028;9379;-23.57;-44.43;14.87;146.99;-16.37;-59.97;5;1010.57;54.693;37.5179;126.76528;34.62;NaN;;1.2;7.785137;112.2;33 / 43;5508;2021-05-13 12:03:39:119
7.4846;5.7931;6.2838;6.1409;6.8603;3.3758;-1.4091;-0.2022;-1.0663;0.7004;0.4677;0.6009;8593;-3.08;-23.74;37.13;129.36;-44.39;-61.2;5;1010.61;66.662;37.517864;126.765274;34.5;NaN;;1.52;8.899832;166.2;33 / 43;6008;2021-05-13 12:03:39:619
6.8371;5.8516;2.8573;5.6241;7.8768;1.5796;-1.9384;-0.7127;-1.186;-0.9967;-0.0336;2.0755;7883;-0.34;-14.37;40.73;118.17;-55.6;-68.33;5;1010.6;65.475;37.517864;126.765274;34.5;NaN;;1.52;8.899832;166.2;33 / 43;6508;2021-05-13 12:03:40:119
6.5774;6.1935;1.8734;6.8293;6.8618;1.5642;-0.0594;-0.6616;1.0995;1.3397;1.4316;0.0995;7351;-5.65;-4.98;39.14;102.4;-38.48;-70.44;5;1010.57;49.198;37.51792;126.76525;33.53;NaN;;0;5.892333;;33 / 43;7008;2021-05-13 12:03:40:619
7.4206;6.1528;3.5171;7.3423;5.4816;3.4947;0.4857;0.46;0.0602;0.917;-0.9161;-0.8699;8993;-4.85;-14.08;38.8;116.28;-33.98;-64.55;5;1010.57;45.398;37.51792;126.76525;33.53;NaN;;0;5.892333;;33 / 43;7508;2021-05-13 12:03:41:119
7.4593;6.3769;1.9248;6.6684;6.1698;3.6927;0.5674;0.3487;-2.1034;-0.4639;-0.7379;0.091;6138;-14.4;-2.07;28.87;94.78;-38.99;-61.02;5;1010.57;43.371;37.517918;126.76524;34.28;NaN;;0;5.999699;;32 / 43;8008;2021-05-13 12:03:41:619
7.4131;6.4604;2.499;6.7252;6.2965;3.3609;0.0581;0.1434;-1.1538;-0.1148;0.6707;0.7146;6138;-12.03;-3.64;32.3;94.87;-44.55;-69.29;5;1010.57;42.84;37.517918;126.76524;34.28;NaN;;0;5.999699;;32 / 43;8508;2021-05-13 12:03:42:119
6.576;6.429;1.7297;6.1504;6.9324;3.2069;0.0389;-0.3778;-1.6769;-0.4838;-0.2692;0.479;5767;-12.89;0.78;30.06;85.19;-43.99;-71.68;5;1010.58;42.68;37.517918;126.76524;34.28;NaN;;0;5.999699;;32 / 43;9008;2021-05-13 12:03:42:619
5.7215;6.6377;1.9538;6.508;6.6191;3.1628;0.6964;-0.4843;-0.6354;0.7004;0.1359;-0.5697;6313;-11.93;-0.35;31.37;89.75;-36.83;-69.25;5;1010.57;42.442;37.517918;126.76524;34.28;NaN;;0;5.999699;;32 / 43;9508;2021-05-13 12:03:43:119
7.5807;6.0973;2.333;7.3418;5.508;3.454;1.1843;0.6999;-0.8512;-0.1151;0.0796;-1.5276;5575;-14.19;-4.61;30.79;97.43;-34.17;-64.81;5;1010.57;41.904;37.517906;126.76526;35.72;NaN;;0;6.151958;;33 / 43;10008;2021-05-13 12:03:43:619
7.6088;6.072;2.6106;7.318;6.3054;1.691;-0.7942;0.3583;0.9568;0.0228;1.5159;1.4088;5908;-16.35;-3.37;29.86;84.12;-40.01;-76.99;5;1010.57;44.036;37.517906;126.76526;35.72;NaN;;0;6.151958;;33 / 43;10508;2021-05-13 12:03:44:119
7.2033;6.4276;2.2509;6.9713;6.6011;1.9992;-5.00E-04;0.035;0.548;-0.3155;0.9688;0.7986;5640;-12.74;-1.64;35.14;89.33;-42.31;-74;5;1010.57;49.631;37.517918;126.76527;35.45;NaN;;0;6.325726;;33 / 43;11008;2021-05-13 12:03:44:619
6.1305;6.5224;2.1554;6.1889;7.2274;2.3732;0.1481;-0.7382;0.0841;0.3207;-0.281;0.4804;6021;-10.43;-0.3;34.98;93.71;-47.48;-69.02;5;1010.57;46.949;37.517918;126.76527;35.45;NaN;;0;6.325726;;33 / 43;11508;2021-05-13 12:03:45:119
7.9887;5.7339;3.3391;7.1886;5.5943;3.6328;3.3679;-0.4473;0.0768;0.6163;-0.5604;-2.2307;7167;-0.59;-2.06;39.36;107.58;-34.78;-63.19;5;1010.57;53.095;37.517918;126.76527;35.45;NaN;;0;6.325726;;33 / 43;12008;2021-05-13 12:03:45:619
8.7562;5.8739;3.2751;7.748;4.2459;4.2557;1.3366;1.4455;-1.3742;0.0934;-1.2385;-1.2218;7605;-23.29;-8.99;21.66;88.45;-35.46;-69.76;5;1010.57;45.439;37.517918;126.76527;35.45;NaN;;0;6.325726;;33 / 43;12508;2021-05-13 12:03:46:119
7.95;6.149;2.2803;6.7442;6.2895;3.336;0.1761;0.1986;-1.4951;-0.7547;1.3006;2.0081;5848;-15.71;-8.49;28.82;93.99;-48.39;-68.12;5;1010.58;46.632;37.517925;126.76525;37.45;NaN;;0;6.515039;;33 / 43;13008;2021-05-13 12:03:46:619
6.6082;6.5573;1.3351;5.8161;7.3954;2.7661;-0.2932;-0.8392;-1.4263;-0.0469;1.6765;0.9292;5751;-7.48;0.6;35.35;93.73;-50.91;-72.58;5;1010.57;46.856;37.517925;126.76525;37.45;NaN;;0;6.515039;;33 / 43;13508;2021-05-13 12:03:47:119
5.5668;6.4098;2.0483;6.0734;7.314;2.4061;0.0555;-1.058;0.307;0.5954;1.1184;-0.3575;6359;-5.82;-1.89;34.65;101.05;-48.23;-68.39;5;1010.57;45.799;37.517918;126.76523;38.53;NaN;;0;6.230924;;33 / 43;14008;2021-05-13 12:03:47:619
7.4285;6.2592;3.076;7.5937;5.7046;2.442;0.6493;0.3888;0.9003;0.2507;0.3945;-1.42;6468;-15.92;-10.9;30.3;100.36;-32.89;-71.62;5;1010.57;47.79;37.517918;126.76523;38.53;NaN;;0;6.230924;;33 / 43;14507;2021-05-13 12:03:48:118
8.0311;6.2637;2.8501;7.2276;6.1391;2.4988;-0.3826;0.3514;-0.2879;-0.6497;-0.402;1.027;5936;-17.83;-10.32;28.96;95.29;-38.76;-70.93;5;1010.57;47.987;37.517914;126.76523;39.06;NaN;;0;6.050809;;34 / 43;15008;2021-05-13 12:03:48:619
8.2943;6.495;2.7095;7.8046;5.3922;2.4866;-1.3088;1.5307;-0.34;-0.151;0.2379;1.5316;5301;-23.63;-6.27;30.08;86.6;-41.14;-66.76;5;1010.58;49.524;37.517914;126.76523;39.06;NaN;;0;6.050809;;34 / 43;15508;2021-05-13 12:03:49:119
5.9272;6.649;1.7971;6.2263;7.1415;2.5305;0.0406;-0.7675;-0.4344;0.18;0.0656;-0.0675;5359;-15.33;-5.6;39.76;96.63;-46.74;-67.88;5;1010.58;54.274;37.517914;126.76524;38.4;NaN;;0;5.961344;;34 / 43;16007;2021-05-13 12:03:49:618
5.4546;6.4146;1.9706;5.1943;7.5916;3.3996;1.0387;-1.9359;-1.2567;1.6815;-1.4607;-0.7658;7068;-17.31;-8.3;39.35;99.73;-35.13;-64.7;5;1010.59;54.176;37.517914;126.76524;38.4;NaN;;0;5.961344;;34 / 43;16508;2021-05-13 12:03:50:119
10.5549;5.8609;4.3955;7.3897;5.1541;3.8726;3.8636;-0.9536;1.8359;0.8783;-1.2288;-3.0995;7333;-8.08;-10.21;48;109.64;-31.71;-62.34;5;1010.58;51.498;37.517914;126.76524;38.4;NaN;;0;5.961344;;33 / 43;17008;2021-05-13 12:03:50:619
10.1391;5.454;3.6167;7.8073;4.4624;3.912;0.8127;1.2718;-1.2724;-1.06;-0.5591;1.8132;6618;-32.81;-11.62;26.81;73.55;-54.21;-70.29;5;1010.58;52.727;37.517914;126.76524;38.4;NaN;;0;5.961344;;33 / 43;17508;2021-05-13 12:03:51:119
8.1693;6.2842;1.5032;5.4368;7.7349;2.6046;-1.9149;-1.2461;-2.5943;-1.4788;-0.0835;2.9564;5310;-18.89;-0.34;37.82;88.42;-58.75;-65.29;5;1010.59;52.683;37.517914;126.76525;38.29;NaN;;0.74;6.346597;89.3;33 / 43;18008;2021-05-13 12:03:51:619
3.5338;6.3338;1.0894;5.867;7.2023;3.1424;3.0469;-1.2092;0.1281;0.9056;1.5363;-0.6273;6307;-4.73;-1.85;32;99.6;-40.18;-70.49;5;1010.58;53.846;37.517914;126.76525;38.29;NaN;;0.74;6.346597;89.3;33 / 43;18508;2021-05-13 12:03:52:119
5.1815;6.5764;1.0723;7.0245;6.4898;2.1699;2.9622;-0.4141;0.8781;0.2442;1.7411;-1.6602;5417;-11.03;-0.82;32.46;90.08;-41.44;-72.83;5;1010.59;52.97;37.517902;126.765274;39.63;NaN;;2.34;6.374998;110.9;33 / 43;19008;2021-05-13 12:03:52:619
7.9414;6.277;2.4247;7.8144;5.436;2.3571;0.1611;0.616;0.3055;-0.3857;0.5954;0.2955;5704;-12.79;-7.71;31.61;96.38;-43.76;-72.52;5;1010.58;52.491;37.517902;126.765274;39.63;NaN;;2.34;6.374998;110.9;33 / 43;19508;2021-05-13 12:03:53:119
7.1687;6.7989;2.6893;6.7223;7.063;1.047;0.4133;-0.3186;1.9887;0.5379;-0.3291;1.2621;5205;-1.07;-3.37;40.14;108.14;-48.13;-68.35;5;1010.58;52.124;37.51789;126.7653;39.78;NaN;;2.83;6.908716;120.7;33 / 43;20008;2021-05-13 12:03:53:619
6.5243;6.1261;2.7409;6.8456;6.688;2.1399;0.8731;-0.1354;0.704;-0.0828;-2.5866;-0.7922;5495;1.2;-8.25;40.17;111.13;-43;-72.64;5;1010.58;49.211;37.51789;126.7653;39.78;NaN;;2.83;6.908716;120.7;33 / 43;20508;2021-05-13 12:03:54:119
9.2015;5.3298;3.3545;7.9937;5.1155;2.4703;1.0096;1.323;0.3183;0.0917;-1.0474;-0.0617;5245;-13.09;-8.87;35.56;100;-31.44;-72.83;5;1010.58;50.324;37.517887;126.765305;38.98;NaN;;1;7.537044;109.7;31 / 43;21008;2021-05-13 12:03:54:619
6.1606;6.7602;2.9962;6.5326;6.657;3.0299;1.3013;-0.6343;-0.3294;0.9164;-2.4913;-0.2294;4312;-3.44;-5.73;36.89;110.65;-42.75;-65.12;5;1010.59;49.873;37.517887;126.765305;38.98;NaN;;1;7.537044;109.7;31 / 43;21508;2021-05-13 12:03:55:119
6.2951;6.7493;2.4285;6.2885;7.1275;2.4133;2.3251;-1.8675;-0.0533;0.1302;-1.988;-1.0495;4288;-7.86;0.14;38.53;96.86;-46.62;-69.01;5;1010.59;52.483;37.517887;126.765305;38.98;NaN;;1;7.537044;109.7;31 / 43;22008;2021-05-13 12:03:55:619
6.7386;5.7548;2.4973;7.3822;4.5352;4.594;2.1415;0.5138;-1.6704;-0.3753;0.6021;-1.1626;7543;-22.36;-16.76;33.52;110.01;-27.55;-58.11;5;1010.59;53.16;37.517887;126.765305;38.98;NaN;;1;7.537044;109.7;31 / 43;22508;2021-05-13 12:03:56:119
10.6309;5.8807;3.5201;8.689;2.4434;3.8343;1.6749;2.5806;-0.4916;0.1115;-0.1167;0.3043;7235;-32.45;-10.91;24.83;94.49;-39.17;-75.58;5;1010.59;52.988;37.5179;126.76531;39.08;NaN;;0.95;6.592663;89.4;32 / 43;23007;2021-05-13 12:03:56:618
7.7621;6.5104;0.9286;6.0078;7.4494;2.1409;0.8456;-1.5023;-1.0775;-1.3628;2.1747;2.2612;4147;-19.19;13.82;31.92;58.29;-60.51;-84.68;5;1010.59;53.71;37.5179;126.76531;39.08;NaN;;0.95;6.592663;89.4;32 / 43;23508;2021-05-13 12:03:57:119
4.0536;6.6712;1.6726;5.0992;8.1893;1.7619;-2.2456;-2.8722;-0.1832;-0.6757;1.2711;-1.545;6656;-7.13;-3.23;49.59;94.67;-40.31;-78.82;5;1010.59;55.485;37.517902;126.76533;39.16;NaN;;1.05;6.553028;91.9;34 / 43;24008;2021-05-13 12:03:57:619
10.4889;3.6191;3.9828;9.0917;1.4348;3.3842;0.4385;2.7734;0.2055;2.1907;0.2982;-2.9662;8870;-30.29;1.71;23.89;81.6;-8.41;-69.58;5;1010.59;54.168;37.517902;126.76533;39.16;NaN;;1.05;6.553028;91.9;34 / 43;24508;2021-05-13 12:03:58:119
9.5125;4.4695;3.5054;7.5;5.8847;2.3003;2.5543;-0.25;0.5665;-1.806;-1.2338;2.6827;6605;-23.73;-10.13;33.58;90.31;-36.87;-72.95;5;1010.59;54.283;37.517914;126.76533;37.96;NaN;;0.52;6.383827;122.3;34 / 43;25007;2021-05-13 12:03:58:618
5.2636;5.5495;1.9994;6.1899;7.5911;0.4809;2.6994;0.6606;3.2281;1.2644;0.1169;0.2708;6152;-2.48;-14.18;44.91;118.02;-51.59;-65.03;5;1010.6;54.585;37.517914;126.76533;37.96;NaN;;0.52;6.383827;122.3;34 / 43;25508;2021-05-13 12:03:59:119
9.6963;7.4583;4.3233;7.4747;6.0519;1.9169;0.6476;-0.2179;1.4065;1.9016;-1.5033;-1.737;5962;-8.75;-3.25;47.94;95.09;-38.11;-75.62;5;1010.6;53.887;37.517914;126.76533;37.96;NaN;;0.52;6.383827;122.3;35 / 43;26008;2021-05-13 12:03:59:619
5.1887;5.2788;1.1962;4.8052;6.6364;5.3888;0.4528;-0.2403;-4.2664;-1.081;-4.6369;2.5353;5021;-28.24;11;9.07;51.25;-53.71;-51.47;5;1010.59;53.832;37.517914;126.76533;37.96;NaN;;0.52;6.383827;122.3;35 / 43;26508;2021-05-13 12:04:00:119
9.3096;3.7724;3.2255;6.1696;6.5808;3.847;2.5598;-0.6303;-1.9123;-3.2266;-0.5044;0.42;7056;-21.34;-18.68;22.48;108.46;-42.15;-58.05;5;1010.59;53.644;37.51792;126.765335;37.74;NaN;;1.36;6.062986;89;35 / 43;27011;2021-05-13 12:04:00:622
9.2435;5.941;3.4852;5.8595;7.0062;3.5707;-1.6311;-0.6625;-1.2887;-0.0431;0.3024;2.5876;9419;-2.06;-25.64;32.86;129.52;-54.29;-64.44;5;1010.58;51.825;37.51792;126.765335;37.74;NaN;;1.36;6.062986;89;35 / 43;27508;2021-05-13 12:04:01:119
8.465;6.818;3.0677;6.8962;6.6681;2.037;-1.8582;-1.5172;-0.471;0.7071;1.4246;-1.7364;7553;-4.46;-12.15;41.83;109.03;-42.84;-73.54;5;1010.59;51.438;37.517925;126.76535;37.88;NaN;;1.8;5.887112;90.7;35 / 43;28008;2021-05-13 12:04:01:619
10.8667;5.7856;4.1714;8.0533;4.7782;2.9127;-0.2945;1.1192;0.0284;-0.0112;-0.6078;-1.1648;7879;-17.04;-20.45;31.84;111.86;-33.92;-68.09;5;1010.59;51.71;37.517925;126.76535;37.88;NaN;;1.8;5.887112;90.7;35 / 43;28508;2021-05-13 12:04:02:119
9.7148;5.8893;3.3443;7.2381;5.9263;2.9427;3.2919;-0.2913;0.5115;-0.7173;-1.5256;0.0739;7581;-6.23;-24.64;31.91;126.77;-37.18;-67.88;5;1010.6;52.596;37.51792;126.76538;38.31;NaN;;2.33;5.864885;98;35 / 43;29008;2021-05-13 12:04:02:619
10.3085;3.1738;4.2443;8.2158;4.9357;2.0759;-1.844;0.7628;0.6027;-0.4657;-1.8369;-0.3627;10810;-2.66;-39.72;17.13;154.74;-34.24;-65.75;5;1010.6;55.84;37.51792;126.76538;38.31;NaN;;2.33;5.864885;98;35 / 43;29508;2021-05-13 12:04:03:119
4.4557;6.6815;0.7647;6.1522;7.1736;2.6191;5.1118;-2.024;0.9016;0.9877;1.9787;0.4544;10079;-0.77;-22.58;37.87;126.22;-47.01;-66.94;5;1010.61;53.104;37.517914;126.7654;37.74;NaN;;1.19;5.64266;115.1;35 / 43;30008;2021-05-13 12:04:03:619
7.1369;6.9337;2.0257;6.6283;7.0901;1.4021;2.6827;-1.5465;1.6694;0.4887;1.6162;-2.2954;8715;13.29;-7.88;49.44;115.98;-46.3;-78.06;5;1010.61;51.786;37.517914;126.7654;37.74;NaN;;1.19;5.64266;115.1;35 / 43;30509;2021-05-13 12:04:04:120
9.6508;4.7241;3.3227;8.406;4.8518;1.4031;2.9628;0.0255;2.9095;0.8369;0.4596;-3.9828;9570;7.1;-20;40.82;121.56;-29.65;-80.52;5;1010.61;51.612;37.517902;126.76541;37.95;NaN;;1.57;5.572794;129.5;35 / 43;31008;2021-05-13 12:04:04:619
10.1001;4.851;3.8949;8.8609;3.5018;2.322;2.4948;1.9559;1.5596;-0.092;-2.0436;0.882;9007;-15.51;-27.79;29.22;125.17;-59.15;-68.38;5;1010.61;50.308;37.517902;126.76541;37.95;NaN;;1.57;5.572794;129.5;35 / 43;31508;2021-05-13 12:04:05:119
8.2682;5.9772;2.8029;6.769;6.6873;2.373;1.1387;0.772;-0.3678;-0.3883;-2.4428;2.6972;9865;-0.42;-22.39;40.42;130.43;-58.48;-58.82;5;1010.61;49.748;37.51789;126.765434;39;NaN;;1.93;5.411891;125;33 / 43;32008;2021-05-13 12:04:05:619
4.6521;6.6627;-0.0111;4.6293;8.33;2.3131;0.775;-4.0177;-1.9302;1.5671;0.5181;-1.8448;8924;12.22;20.15;37.18;114.45;-58.15;-63.45;5;1010.61;50.104;37.51789;126.765434;39;NaN;;1.93;5.411891;125;33 / 43;32508;2021-05-13 12:04:06:119
13.5106;5.7425;3.9428;8.7887;3.0885;3.0644;-0.9141;-0.6546;0.024;0.8914;0.6518;-5.4358;9588;6.34;-20.25;32.62;129.65;-18.36;-70.78;5;1010.62;50.853;37.51788;126.76545;40.55;NaN;;1.93;5.662098;123.8;33 / 43;33007;2021-05-13 12:04:06:618
11.099;3.8555;4.168;9.155;3.0257;1.7894;-0.0589;3.0261;1.2927;0.4321;0.6556;0.0369;9438;-8.59;-31.57;28.81;128.65;-35.99;-78.29;5;1010.62;48.65;37.51788;126.76545;40.55;NaN;;1.93;5.662098;123.8;33 / 43;33508;2021-05-13 12:04:07:119
3.8287;6.4146;0.7636;5.0274;8.2362;1.7494;-1.2594;-1.4558;-1.2501;-0.7436;0.3905;0.7752;9363;6.49;-26.49;36.88;131.41;-57.13;-70.81;5;1010.61;47.275;37.51787;126.76546;40.44;NaN;;1.43;5.251472;143.3;33 / 43;34008;2021-05-13 12:04:07:619
2.6618;5.1125;0.714;6.6961;6.693;2.5566;8.2339;-2.6923;2.3559;2.177;0.7269;-4.3838;9777;14.24;-5.47;36.49;107.91;-12.79;-74.47;5;1010.62;46.327;37.51787;126.76546;40.44;NaN;;1.43;5.251472;143.3;33 / 43;34507;2021-05-13 12:04:08:118
10.1884;5.8164;3.475;8.6274;3.3975;3.193;5.8724;1.4991;1.6972;-0.5952;-0.9281;-2.7748;10025;-8.24;-33.41;22.16;139.23;-35.66;-68.62;5;1010.62;55.216;37.517864;126.765465;41.08;NaN;;1.2;5.109271;146.6;33 / 43;35007;2021-05-13 12:04:08:618
4.5395;6.5734;2.4138;6.0779;7.3559;2.2629;-0.4644;-0.8401;0.4327;-1.0716;-1.055;1.5103;13181;9.28;-41.96;-2.8;190.13;-48.6;-69.58;5;1010.62;54.042;37.517864;126.765465;41.08;NaN;;1.2;5.109271;146.6;33 / 43;35508;2021-05-13 12:04:09:119
6.6657;7.1089;1.8166;7.09;6.2019;2.7272;2.2603;-1.0211;0.0621;1.3785;-0.9267;0.2447;9189;13.65;-27.91;25.92;151.78;-39.23;-68.96;5;1010.62;51.553;37.51785;126.76547;40.78;NaN;;1.49;4.872438;165.7;33 / 43;36008;2021-05-13 12:04:09:619
8.4178;6.3468;2.9798;6.8716;6.0678;3.4833;1.9475;-0.5711;-1.0936;-1.1624;-1.9874;-1.0032;8000;14.91;-32.02;19.8;164.1;-40.09;-63.19;5;1010.61;51.258;37.51785;126.76547;40.78;NaN;;1.49;4.872438;165.7;33 / 43;36508;2021-05-13 12:04:10:119
5.7222;5.8992;2.1996;6.7571;6.1652;3.5358;0.8277;1.273;-0.8006;-0.1688;0.3837;0.2839;12499;13.35;-38.08;3.3;185.11;-38.95;-62.38;5;1010.62;54.799;37.517838;126.765465;40.38;NaN;;1.05;4.669515;175;32 / 43;37007;2021-05-13 12:04:10:618
6.1982;7.1585;1.9429;7.6215;5.0602;3.5323;4.1253;-0.3769;0.2209;-0.9074;-0.6942;0.2792;8947;11.49;-36.26;-4.13;193.8;-44.31;-68.05;5;1010.62;51.118;37.517838;126.765465;40.38;NaN;;1.05;4.669515;175;32 / 43;37508;2021-05-13 12:04:11:119
9.3041;6.2852;3.4195;7.324;6.0903;2.3317;1.0872;-0.7988;0.8021;-0.817;1.2542;2.0901;13224;5.23;-34.25;-3.8;190.46;-38.39;-72.34;5;1010.62;56.736;37.517822;126.765465;39.53;NaN;;1;4.472911;198.6;32 / 43;38008;2021-05-13 12:04:11:619
10.2363;4.9485;3.0257;7.531;5.6254;2.7947;1.5145;-0.1458;-0.6363;-0.6777;-0.8264;1.1681;9993;2.02;-36.09;5.85;171.18;-35;-69.64;5;1010.64;56.446;37.517822;126.765465;39.53;NaN;;1;4.472911;198.6;32 / 43;38509;2021-05-13 12:04:12:120
3.7795;6.5515;0.984;5.3648;8.0647;1.5329;-0.6891;-2.6141;0.2167;0.1208;1.2456;1.1728;9774;26.45;-20.51;16.7;165.79;-55.32;-74.05;5;1010.63;53.751;37.517807;126.76545;38.83;NaN;;1.48;4.467648;220;33 / 43;39008;2021-05-13 12:04:12:619
5.6233;6.8516;2.1232;7.8959;5.3412;2.3016;0.8551;-1.1982;0.9357;-0.206;0.5159;-1.4907;10851;15.02;-35.75;5.27;179.11;-33;-73.75;5;1010.62;56.115;37.517807;126.76545;38.83;NaN;;1.48;4.467648;220;33 / 43;39508;2021-05-13 12:04:13:119
4.6093;7.0634;1.5312;7.2843;6.1481;2.3045;3.291;0.5318;1.0128;-0.2273;-0.9378;0.8135;10250;2.08;-40;1.65;177.72;-38.82;-72.44;5;1010.62;56.489;37.517788;126.76544;38.39;NaN;;1.86;4.436989;203;33 / 43;40008;2021-05-13 12:04:13:619
10.7749;7.3231;3.3391;6.7772;6.6453;2.4657;1.9622;-1.9458;0.5397;0.4609;-1.9056;-0.7544;11381;21.92;-34.79;5.74;186.79;-42.34;-62.42;5;1010.63;56.409;37.517788;126.76544;38.39;NaN;;1.86;4.436989;203;33 / 43;40508;2021-05-13 12:04:14:119
4.8793;6.7845;1.1893;7.9346;5.4265;1.9404;1.4594;-2.716;1.3334;1.0383;2.2138;-2.1157;9937;20.75;-31.36;9.34;174.4;-33.6;-76.26;5;1010.65;58.653;37.51777;126.76544;38.33;NaN;;1.49;4.88993;199.9;34 / 43;41009;2021-05-13 12:04:14:620
6.2762;6.7623;1.1;7.1779;6.2091;2.4689;3.6367;1.0175;0.0452;-0.2312;0.6304;-0.4333;8569;16.85;-32.2;16.86;164.66;-39.28;-71.02;5;1010.63;59.862;37.51777;126.76544;38.33;NaN;;1.49;4.88993;199.9;34 / 43;41508;2021-05-13 12:04:15:119
9.8137;5.6121;3.4572;6.9056;6.6087;2.1928;-3.0788;-0.111;-0.5481;-0.1443;-0.0444;1.3901;8903;16.65;-36.32;4.61;180.56;-42.37;-72.38;5;1010.63;55.024;37.517742;126.76544;37.33;NaN;;1.93;4.806636;194.5;34 / 43;42008;2021-05-13 12:04:15:619
4.8958;5.0286;1.9261;6.9955;6.5986;1.9212;2.8297;1.1971;1.2207;0.3506;-0.1025;-1.6065;9488;24.69;-29.81;7.84;183.41;-35.76;-67.1;5;1010.64;55.351;37.517742;126.76544;37.33;NaN;;1.93;4.806636;194.5;34 / 43;42508;2021-05-13 12:04:16:119
5.6709;6.4731;1.2746;6.4241;6.9872;2.4658;0.8573;-0.1249;-0.4322;-0.2498;0.5866;0.2224;10294;26.87;-28.17;9.34;182.08;-39.35;-68.66;5;1010.64;53.302;37.51772;126.76543;38.85;NaN;;2.59;4.500926;201.9;35 / 43;43008;2021-05-13 12:04:16:619
9.1419;8.4388;2.7888;6.312;6.7879;3.202;-0.2226;-1.8443;-1.4025;-0.0661;0.5841;-1.5162;10647;25.77;-27.86;-0.81;199.39;-43.8;-63.1;5;1010.63;54.363;37.51772;126.76543;38.85;NaN;;2.59;4.500926;201.9;35 / 43;43508;2021-05-13 12:04:17:119
7.4209;5.7031;2.7136;8.2302;4.8946;2.1158;-1.7044;1.5681;-0.7785;1.2948;0.6019;-2.849;12707;13.63;-32.79;-3.53;191.92;-29.94;-75.58;5;1010.63;52.97;37.51769;126.76541;38.9;NaN;;3.44;4.704679;195.1;34 / 43;44008;2021-05-13 12:04:17:619
11.1018;4.2942;3.9524;8.8348;3.8162;1.8849;-1.2419;2.97;0.5656;0.3235;-0.6079;0.0474;7987;-1.51;-34.73;-1.98;182.81;-22.9;-77.96;5;1010.62;53.986;37.51769;126.76541;38.9;NaN;;3.44;4.704679;195.1;34 / 43;44507;2021-05-13 12:04:18:118
10.6565;6.0248;2.4258;6.8167;6.3143;3.1357;-3.0093;0.0583;-2.7136;-1.2006;-0.6784;1.9253;7973;3.82;-35.23;10.68;165.46;-40.08;-65.3;5;1010.63;58.754;37.51765;126.7654;39.83;NaN;;3.34;5.153309;191.8;33 / 43;45008;2021-05-13 12:04:18:619
5.9087;6.0231;1.8419;5.8751;7.4471;2.4889;1.1157;-0.7467;-0.3188;-0.1194;0.41;-2.1767;11180;33.21;-19.27;14.13;173.16;-30.72;-73.64;5;1010.62;52.581;37.51765;126.7654;39.83;NaN;;3.34;5.153309;191.8;33 / 43;45508;2021-05-13 12:04:19:119
9.8352;6.2421;2.7731;7.9411;4.9578;2.9205;0.622;0.7712;-0.3371;0.6298;0.4325;-2.1943;10765;19.42;-28.65;4.04;184.62;-30.37;-69.81;5;1010.61;52.752;37.517628;126.76539;40.1;NaN;;2.39;5.553004;192.9;33 / 43;46008;2021-05-13 12:04:19:619
8.5632;5.4304;2.6362;7.6324;5.6614;2.4219;1.6828;1.0999;0.3829;-0.3969;-0.1389;1.3174;9746;5.23;-36.19;-0.6;184.41;-35.26;-72.39;5;1010.62;55.864;37.517628;126.76539;40.1;NaN;;2.39;5.553004;192.9;33 / 43;46508;2021-05-13 12:04:20:119
7.7156;6.3222;3.012;6.9323;6.7892;1.4215;-0.9845;-0.3303;1.3402;0.3145;0.3794;0.8377;8716;15.82;-32.51;-0.83;186.93;-43.81;-78.41;5;1010.62;51.588;37.51761;126.76538;39.24;NaN;;2.31;5.160333;206;32 / 43;47008;2021-05-13 12:04:20:619
3.4174;5.3253;0.8208;6.2508;7.5529;0.2284;-0.968;-1.3238;1.511;0.4108;1.8023;0.8841;7829;28.6;-19.71;25.18;151.08;-38.22;-80.5;5;1010.62;55.297;37.51761;126.76538;39.24;NaN;;2.31;5.160333;206;32 / 43;47508;2021-05-13 12:04:21:119
7.2389;6.0833;2.5373;7.278;5.9297;2.8356;0.0038;0.0728;-0.1084;-0.44;-0.7135;-0.3676;10540;12.49;-34.95;11.23;171.47;-36.6;-67.53;5;1010.61;51.945;37.517593;126.765366;38.99;NaN;;2.15;4.851414;211.5;30 / 43;48008;2021-05-13 12:04:21:619
4.1573;7.1856;0.7653;6.1929;6.9957;2.9795;0.8467;-0.6433;-1.2869;-0.8716;-0.2199;-0.149;8969;23.32;-28.02;12.91;178.34;-42.41;-62.94;5;1010.61;56.04;37.517593;126.765366;38.99;NaN;;2.15;4.851414;211.5;30 / 43;48508;2021-05-13 12:04:22:119
3.9033;5.6371;1.74;7.5073;5.5808;2.9438;3.3848;1.9815;0.6509;-0.2407;-0.3314;-0.7768;10081;14.38;-32.95;-3.63;194.68;-34.69;-68.59;5;1010.62;54.052;37.517574;126.76535;38.51;NaN;;1.97;4.639228;202.5;29 / 43;49007;2021-05-13 12:04:22:618
8.5814;5.6391;2.9743;8.166;5.0158;2.0804;-1.8572;0.7593;0.0661;0.5011;0.0122;0.9917;7755;-0.46;-35.96;-2.19;183.61;-30.76;-75.71;5;1010.62;57.025;37.517574;126.76535;38.51;NaN;;1.97;4.639228;202.5;29 / 43;49509;2021-05-13 12:04:23:120
8.1646;6.6969;1.8009;6.3734;7.218;1.8576;-1.432;0.1408;-1.0806;-1.1192;0.1991;0.8827;5169;19.92;-28.8;13.35;169.3;-47.39;-73.75;5;1010.62;56.702;37.517555;126.76534;38.14;NaN;;1.89;4.507215;205.3;31 / 43;50008;2021-05-13 12:04:23:619
6.0473;7.0384;1.9384;5.6332;7.7569;2.066;-1.4813;-2.2873;0.0966;1.2757;0.8217;-0.1078;6638;33.63;-19.25;11.71;186.47;-16.52;-74.31;5;1010.61;58.307;37.517555;126.76534;38.14;NaN;;1.89;4.507215;205.3;31 / 43;50509;2021-05-13 12:04:24:120
9.1272;5.7237;2.6369;7.4542;4.4469;4.564;2.6184;2.1331;-2.0191;-0.3756;-1.4618;-1.0933;6578;11.54;-35.42;3.61;184.44;-26.97;-58.52;5;1010.62;58.878;37.51754;126.76533;38.51;NaN;;1.98;4.200598;210.7;32 / 43;51008;2021-05-13 12:04:24:619
5.4423;6.0843;1.8125;6.3435;6.8733;2.9476;0.2644;-0.2322;-0.4098;-0.778;-0.2972;2.3697;9465;4.02;-35.83;-7.73;199.07;-44.5;-65.08;5;1010.62;55.869;37.51754;126.76533;38.51;NaN;;1.98;4.200598;210.7;32 / 43;51508;2021-05-13 12:04:25:119
7.9363;5.9642;2.7608;6.0938;7.6627;0.5657;-3.5498;-1.3442;1.2222;0.442;2.1743;-0.2752;6828;32.9;-25.86;12.78;167;-51.39;-84.7;5;1010.62;56.113;37.517525;126.76532;38.71;NaN;;1.68;4.426455;206.2;32 / 43;52008;2021-05-13 12:04:25:619
4.1802;6.5918;1.5671;6.8821;6.8209;1.5108;0.6027;-0.4333;0.8811;-0.3244;0.379;-1.5173;7636;27.54;-24.69;7.75;177.29;-44.07;-77.62;5;1010.62;60.754;37.517525;126.76532;38.71;NaN;;1.68;4.426455;206.2;32 / 43;52508;2021-05-13 12:04:26:119
4.4967;6.5679;0.777;7.6463;5.596;2.5275;1.4389;-0.616;0.0645;0.4014;0.3729;-0.1359;10333;9.59;-31.12;3.39;180.53;-34.79;-71.71;5;1010.61;62.773;37.517513;126.76531;38.24;NaN;;1.35;4.830053;204.6;32 / 43;53008;2021-05-13 12:04:26:619
10.5943;5.4721;3.2128;7.5189;5.9218;2.1375;0.129;1.1871;0.6911;0.3041;1.076;-1.7363;8855;17.26;-30.4;2.94;182.66;-38.69;-74.72;5;1010.62;62.107;37.517513;126.76531;38.24;NaN;;1.35;4.830053;204.6;32 / 43;53508;2021-05-13 12:04:27:119
6.1411;4.2296;2.228;7.7578;5.2412;2.9182;1.8426;1.1754;-0.1333;0.4442;-0.9865;-1.1136;8189;13.62;-32.8;0.15;188.04;-32.31;-69.39;5;1010.63;58.472;37.517494;126.76531;36.31;NaN;;1.32;4.696708;189.6;32 / 43;54008;2021-05-13 12:04:27:619
8.9078;5.8126;2.7149;7.7978;5.1091;3.0434;-1.0858;1.4259;-1.1206;-0.8185;-0.8806;1.5466;7944;4.46;-36.89;-5.73;194.42;-43.67;-66.3;5;1010.62;57.521;37.517494;126.76531;36.31;NaN;;1.32;4.696708;189.6;32 / 43;54508;2021-05-13 12:04:28:119
10.0491;6.7044;2.4921;6.3151;7.1434;2.2937;-0.7867;0.1113;-0.6053;-0.0874;1.3082;0.2092;7779;15.43;-34.84;2.08;185.33;-46.75;-70.04;5;1010.62;56.539;37.517475;126.7653;35.75;NaN;;1.84;4.824447;216.6;33 / 43;55008;2021-05-13 12:04:28:619
2.6365;4.2665;0.79;7.2468;6.3089;1.9625;2.8078;-0.432;1.3997;-0.7395;1.8046;0.1042;7688;17.43;-34.95;-0.2;186.83;-40.21;-74.76;5;1010.62;54.444;37.517475;126.7653;35.75;NaN;;1.84;4.824447;216.6;33 / 43;55508;2021-05-13 12:04:29:119
7.4014;5.7883;2.3577;7.757;5.8434;1.3615;1.713;1.5643;1.1051;-0.3597;0.9168;0.9327;6621;11.34;-38.03;-1.35;186.21;-49.9;-76.53;5;1010.62;64.042;37.51746;126.76528;35.86;NaN;;1.36;5.035825;220.3;32 / 43;56007;2021-05-13 12:04:29:618
12.4843;7.5257;3.1923;6.887;6.598;2.2814;-2.3947;-0.354;-0.9679;0.395;0.1831;0.6537;5807;21.24;-33.44;4.84;182.73;-42.28;-71.67;5;1010.6;55.409;37.51746;126.76528;35.86;NaN;;1.36;5.035825;220.3;32 / 43;56509;2021-05-13 12:04:30:120
4.1891;6.1042;1.5247;8.44;4.8333;1.2556;5.5106;-1.2392;3.5007;0.6755;1.0096;-2.7465;6631;16.4;-31.49;4.36;177.38;-29.53;-81.54;5;1010.6;60.634;37.51744;126.765274;36.95;NaN;;1.55;4.718998;197.8;31 / 43;57008;2021-05-13 12:04:30:619
4.4807;5.5847;0.9573;6.9069;6.473;2.5623;0.2504;-1.2315;-1.0467;-0.7368;-0.0251;1.4218;5964;19.12;-32.21;14.49;170.3;-42.86;-69.96;5;1010.59;55.394;37.51744;126.765274;36.95;NaN;;1.55;4.718998;197.8;31 / 43;57507;2021-05-13 12:04:31:118
6.8409;6.4652;2.5336;7.7416;5.7665;1.7279;2.2955;-1.0159;1.5557;0.5556;-1.2492;-0.5304;8289;14.02;-35.06;-0.08;189.75;-36.67;-64.1;5;1010.6;55.357;37.517414;126.765274;36.94;NaN;;1.45;4.768918;189.8;31 / 43;58007;2021-05-13 12:04:31:618
14.2446;7.3899;3.0903;6.4418;6.615;3.3038;-2.1323;-1.4428;-2.8949;-0.0664;-1.7569;0.1975;4998;17.37;-32.55;9.23;176.09;-41.75;-69.72;5;1010.61;55.582;37.517414;126.765274;36.94;NaN;;1.45;4.768918;189.8;31 / 43;58508;2021-05-13 12:04:32:119
7.513;4.5177;2.1256;8.0866;4.3326;3.4651;3.2974;0.5783;-0.382;-1.2849;0.1906;1.9696;6035;5.13;-35.64;-9.18;197.36;-26.22;-66.8;5;1010.61;54.098;37.517395;126.76527;35.59;NaN;;1.49;10.536761;192.6;31 / 43;59008;2021-05-13 12:04:32:619
7.436;6.2466;1.4392;6.3652;7.2151;1.8965;-0.669;-2.2065;-0.298;-0.3913;1.429;1.3681;5293;21.54;-30.46;3.18;181.72;-46.9;-79.39;5;1010.61;57.126;37.517395;126.76527;35.59;NaN;;1.49;10.536761;192.6;31 / 43;59508;2021-05-13 12:04:33:119
7.5705;5.3233;2.5787;7.5581;6.1394;1.1633;-1.3917;-0.1477;1.0629;0.0532;1.5978;0.2431;6137;17.33;-35.7;1.92;180.9;-38.76;-81.25;5;1010.62;55.007;37.517372;126.76526;35.03;NaN;;1.69;10.536744;183.5;31 / 43;60008;2021-05-13 12:04:33:619
7.9609;5.5594;1.9244;7.1196;6.5467;1.6196;-1.3107;0.2203;-0.5688;-0.1844;-0.0213;0.8869;4882;15.9;-34.19;9.87;170.54;-41.88;-77.18;5;1010.61;57.237;37.517372;126.76526;35.03;NaN;;1.69;10.536744;183.5;31 / 43;60508;2021-05-13 12:04:34:119
6.7769;6.6596;2.3785;7.6899;5.7629;1.9559;2.8812;-0.6304;1.7817;0.6688;0.802;-1.0758;7427;19.07;-35;1.55;183.98;-35.99;-75.73;5;1010.61;53.582;37.51735;126.76524;34.28;NaN;;1.94;10.272494;196.6;32 / 43;61008;2021-05-13 12:04:34:619
11.2965;7.2886;3.0633;7.883;4.9253;3.1257;-0.0727;1.0492;-1.2232;-1.1228;-1.5831;0.2279;6003;7.14;-36.26;-4.58;193.46;-40.67;-68.04;5;1010.62;52.04;37.51735;126.76524;34.28;NaN;;1.94;10.272494;196.6;32 / 43;61508;2021-05-13 12:04:35:119
7.319;5.7675;2.4566;7.8844;5.6838;1.3038;-1.1706;0.1644;1.2791;0.4892;-0.2684;1.2125;10649;4.34;-38.05;-8.35;194.73;-35.42;-80.61;5;1010.61;53.63;37.517326;126.76522;34.04;NaN;;1.69;10.261775;204.3;34 / 43;62008;2021-05-13 12:04:35:619
6.8145;6.6103;0.8447;6.3305;7.1708;2.1622;0.4671;-1.6095;-1.7113;-1.1335;-0.4198;1.6473;4484;22.13;-22.72;22.41;154.99;-51.34;-76.7;5;1010.62;50.44;37.517326;126.76522;34.04;NaN;;1.69;10.261775;204.3;34 / 43;62508;2021-05-13 12:04:36:119
10.6668;5.3938;3.7156;8.4172;4.3462;2.5362;-0.0863;2.9133;-0.1555;-0.6278;-0.2567;-0.9672;12230;4.38;-35.9;-8.33;194.89;-25.5;-73.28;5;1010.61;53.746;37.517303;126.765205;33.45;NaN;;2.06;10.145309;213.6;34 / 43;63008;2021-05-13 12:04:36:619
9.0139;5.9327;2.0343;7.8723;4.4236;3.8248;1.1758;1.5283;-1.7739;-0.9609;-0.779;0.6905;8442;6.75;-38.09;-1.46;186.13;-46.19;-70.24;5;1010.61;54.053;37.517303;126.765205;33.45;NaN;;2.06;10.145309;213.6;34 / 43;63508;2021-05-13 12:04:37:119
4.7489;4.091;1.2876;6.5709;6.7611;2.6984;-2.3155;-0.2662;-1.1165;-0.6803;0.0096;2.8194;8263;27.95;-30.21;-0.05;192.68;-50.48;-71.47;5;1010.61;58.646;37.51729;126.76518;33.31;NaN;;1.66;10.116438;219.3;34 / 43;64007;2021-05-13 12:04:37:618
7.7868;5.7083;1.858;6.1087;7.6066;0.9969;-4.4798;-1.762;-0.5179;0.6119;1.2654;-0.4774;7702;34.42;-21.07;12.38;170.82;-30.95;-79.93;5;1010.61;57.337;37.51729;126.76518;33.31;NaN;;1.66;10.116438;219.3;34 / 43;64508;2021-05-13 12:04:38:119
6.6578;4.5543;2.0052;8.2297;4.4553;2.9315;1.028;1.2365;-0.4285;-0.6156;-0.0931;-0.1723;7494;9.18;-37.09;-0.98;186.17;-27.02;-70.39;5;1010.62;51.515;37.517277;126.76516;32.57;NaN;;1.7;10.103356;241;34 / 43;65008;2021-05-13 12:04:38:619
11.9836;7.1753;3.028;7.8633;5.2421;2.6191;-0.4186;-0.5309;-0.6519;-0.5077;-0.1412;0.9486;7901;10.86;-34.27;-3.21;191.58;-44.59;-71.56;5;1010.62;55.383;37.517277;126.76516;32.57;NaN;;1.7;10.103356;241;34 / 43;65508;2021-05-13 12:04:39:119
12.4206;6.8143;3.3004;6.947;6.7114;1.6932;-1.111;-2.3662;0.2243;-0.0765;0.2648;1.2186;9349;21.91;-29.18;3.32;183.62;-43.19;-76.3;5;1010.62;55.283;37.51727;126.76514;31.86;NaN;;1.55;10.100899;253.5;34 / 43;66008;2021-05-13 12:04:39:619
7.6899;6.559;1.6712;7.4606;6.0015;2.1192;1.5042;-0.6666;0.4336;0.1858;0.7495;-1.7224;9100;18;-32.31;4.66;179.5;-34.15;-75.46;5;1010.61;52.227;37.51727;126.76514;31.86;NaN;;1.55;10.100899;253.5;34 / 43;66508;2021-05-13 12:04:40:119
7.9349;5.6272;2.5336;8.0675;5.1135;2.2222;0.76;1.5293;0.2562;0.3586;-0.2199;-0.2858;9196;7.31;-34.31;-1.18;184.79;-32.9;-75.78;5;1010.61;55.242;37.51726;126.76512;34.14;NaN;;1.53;10.268592;252.3;32 / 43;67008;2021-05-13 12:04:40:619
6.9028;6.495;1.6914;7.4146;6.0597;2.1152;1.1142;-0.0578;-0.0124;-0.3347;0.4478;0.4568;10012;17.05;-31.89;9.68;171.73;-41.81;-75.15;5;1010.61;52.106;37.51726;126.76512;34.14;NaN;;1.53;10.268592;252.3;32 / 43;67507;2021-05-13 12:04:41:118
11.3694;5.3305;3.103;6.9899;6.1187;3.1422;-5.0926;0.0027;-2.6564;-1.2788;-1.8677;3.4299;13235;-0.85;-36.28;-6.76;193.05;-38.6;-65.79;5;1010.61;52.512;37.517242;126.7651;33.47;NaN;;1.61;10.359756;231.5;29 / 43;68008;2021-05-13 12:04:41:619
6.3573;6.8916;0.8759;4.3474;8.7457;0.8843;0.4432;-3.2758;-0.0468;0.9655;1.9168;-0.3403;9309;42.18;-6.87;16.45;167.84;-54.38;-80.18;5;1010.61;52.996;37.517242;126.7651;33.47;NaN;;1.61;10.359756;231.5;29 / 43;68507;2021-05-13 12:04:42:118
6.8388;6.5867;1.9658;8.0563;5.4002;1.451;1.4391;-0.9888;1.3966;0.0161;1.1983;-3.4363;9678;-0.7;-37.87;1.58;176.63;-11.67;-75.82;5;1010.61;54.565;37.517227;126.76509;33.78;NaN;;1.57;10.352007;214.1;29 / 43;69008;2021-05-13 12:04:42:619
9.3869;6.9132;2.3833;8.0482;5.2828;1.8676;0.4644;0.2579;0.2176;-0.6427;-0.2045;2.2213;8633;-5.05;-36.3;-3.68;185.8;-32.59;-76.94;5;1010.61;54.601;37.517227;126.76509;33.78;NaN;;1.57;10.352007;214.1;29 / 43;69508;2021-05-13 12:04:43:119
3.5871;4.9352;0.5005;4.9691;8.224;1.9607;-2.0806;-1.5948;-1.5469;-0.8316;-0.2664;2.9226;8145;28.06;-25.77;10.18;181.43;-56.99;-68.47;5;1010.61;53.104;37.51721;126.765076;33.85;NaN;;1.53;10.424812;209.5;28 / 43;70008;2021-05-13 12:04:43:619
6.8491;5.1429;1.5894;7.8163;5.3826;2.4705;2.6199;0.9106;-0.0184;0.6163;0.5657;-2.6608;9485;17.59;-31.08;4.16;179.9;-20.59;-77.67;5;1010.61;53.722;37.51721;126.765076;33.85;NaN;;1.53;10.424812;209.5;28 / 43;70508;2021-05-13 12:04:44:119
7.9709;5.5553;2.2211;8.786;3.6749;2.3391;1.685;2.6627;0.4406;-0.2974;0.0223;-0.1519;12443;-3.55;-35.7;-5.99;190.57;-34.49;-77.42;5;1010.61;51.973;37.517185;126.765076;34.45;NaN;;1.82;10.440541;190.9;28 / 43;71009;2021-05-13 12:04:44:620
9.8506;5.5837;2.4466;7.5723;6.0216;1.6035;-0.9876;0.2625;0.0418;-0.0664;0.4461;1.8407;10758;8.78;-35.85;6.52;171.83;-37.88;-78.04;5;1010.61;51.643;37.517185;126.765076;34.45;NaN;;1.82;10.440541;190.9;28 / 43;71508;2021-05-13 12:04:45:119
7.0017;6.2513;1.4635;5.9001;7.5147;2.211;-5.3035;-1.3554;-1.8434;-0.6704;0.52;2.2005;11275;24.61;-28.4;11.45;177.75;-50.02;-69.46;5;1010.61;53.699;37.517166;126.76506;35.16;NaN;;1.48;10.692714;203.4;28 / 43;72008;2021-05-13 12:04:45:619
7.0445;4.7665;1.92;7.1345;6.6172;1.2173;-0.0927;-1.9523;1.0202;0.9165;0.7371;-3.1377;11275;10.13;-36.97;5.18;176.56;-25.02;-75.29;5;1010.61;54.54;37.517166;126.76506;35.16;NaN;;1.48;10.692714;203.4;28 / 43;72507;2021-05-13 12:04:46:118
14.4079;4.3233;4.0831;8.4151;3.9154;3.1664;-0.1282;2.4612;-1.2381;-0.8967;-1.7246;-1.399;9830;0.11;-38.06;-2.6;185.44;-37.83;-68.67;5;1010.59;53.234;37.51715;126.76502;36.3;NaN;;1.54;10.420517;233.5;26 / 43;73007;2021-05-13 12:04:46:618
14.5478;5.4495;3.7313;7.4966;5.3129;3.4269;-2.0087;2.4291;-2.3807;-0.2591;-1.8391;2.4167;10757;4.43;-36.34;-8.39;201.39;-50.11;-61.22;5;1010.59;56.146;37.51715;126.76502;36.3;NaN;;1.54;10.420517;233.5;26 / 43;73508;2021-05-13 12:04:47:119
7.6632;6.1678;1.2547;6.3017;7.3618;1.5042;0.1767;0.4996;-0.1503;-0.1142;1.4019;0.218;8077;29.15;-26.05;10.44;175.73;-48.65;-76.57;5;1010.59;58.21;37.517143;126.765;36;NaN;;1.31;10.454777;244.7;28 / 43;74008;2021-05-13 12:04:47:619
10.0241;4.6488;2.8809;8.8999;3.9732;1.0843;0.9971;-0.3375;2.291;1.3936;1.4829;-2.7728;8541;14.44;-33;8.38;170.21;-23.9;-83.05;5;1010.6;52.683;37.517143;126.765;36;NaN;;1.31;10.454777;244.7;28 / 43;74508;2021-05-13 12:04:48:119
6.8036;6.3588;2.1944;7.9919;5.2331;2.217;1.4139;0.8619;0.4805;-1.2995;-1.3932;0.6508;9665;7.14;-35.09;-1.99;186.58;-32.25;-74.5;5;1010.61;53.104;37.517136;126.76498;35.66;NaN;;1.45;10.469819;256.5;28 / 43;75008;2021-05-13 12:04:48:619
6.7824;6.355;1.7249;6.2241;6.9773;2.9577;1.2058;-0.7088;-0.8351;0.4714;0.0723;0.6705;8822;20.55;-29.11;0.89;193.35;-45.36;-64.58;5;1010.61;53.829;37.517136;126.76498;35.66;NaN;;1.45;10.469819;256.5;28 / 43;75508;2021-05-13 12:04:49:119
4.7356;5.5064;1.2157;6.3821;7.0477;2.4021;-0.2045;-0.582;-1.1534;0.0473;-0.1057;-0.3143;7666;17.63;-30.21;6.19;181.2;-45.94;-69.37;5;1010.61;52.101;37.51713;126.76495;33.23;NaN;;1.59;10.515665;272;28 / 43;76008;2021-05-13 12:04:49:619
4.29;6.0871;0.5936;6.646;6.877;2.1699;4.4789;-1.4234;0.2535;0.5871;-0.129;-1.5489;8483;18.4;-27.68;14.32;163.7;-32.81;-78.47;5;1010.61;52.904;37.51713;126.76495;33.23;NaN;;1.59;10.515665;272;28 / 43;76508;2021-05-13 12:04:50:119
7.3508;7.139;2.074;8.1811;4.7598;2.5659;2.8914;1.3733;0.586;-0.4913;0.1525;-0.61;10021;6.86;-35.56;0.65;181.47;-27.28;-74.52;5;1010.6;56.814;37.51713;126.76493;33.48;NaN;;1.54;10.646235;267.4;27 / 43;77007;2021-05-13 12:04:50:618
9.3746;5.6597;2.8833;8.3682;4.6711;2.0794;-2.1882;2.088;-0.2779;0.0085;-0.231;1.0792;10934;2.78;-35.34;-1.71;185.88;-39.92;-70.04;5;1010.61;57.834;37.51713;126.76493;33.48;NaN;;1.54;10.646235;267.4;27 / 43;77508;2021-05-13 12:04:51:119
7.2827;5.7647;1.5117;5.8411;7.4422;2.5819;-0.3595;-0.7331;-1.6898;-0.6382;-0.8172;1.6436;9272;21.58;-29.52;10.66;178.25;-49.37;-66.15;5;1010.61;56.88;37.51712;126.76492;33.22;NaN;;1.67;10.673946;236.3;26 / 43;78008;2021-05-13 12:04:51:619
7.7779;5.4406;2.153;6.8367;6.4956;2.6903;-0.6414;-1.7613;-0.6637;0.2366;0.3606;-0.8629;10914;17.26;-33.79;3.55;181.24;-33.79;-74.06;5;1010.6;50.09;37.51712;126.76492;33.22;NaN;;1.67;10.673946;236.3;26 / 43;78508;2021-05-13 12:04:52:119
7.0277;6.1723;1.7461;7.7288;5.6911;2.0118;1.1924;-1.098;0.6893;-0.4408;0.9497;-0.0512;9802;14.92;-34.38;-1.13;187.52;-35.47;-75.41;5;1010.59;52.679;37.517105;126.7649;33.15;NaN;;1.53;10.815998;245.1;26 / 43;79008;2021-05-13 12:04:52:619
6.4638;6.0881;1.343;7.0152;6.6141;1.7922;0.1749;0.5437;0.1993;-0.0518;1.1037;0.3329;9764;20.07;-31.49;2.38;185.13;-40.21;-74.92;5;1010.61;50.61;37.517105;126.7649;33.15;NaN;;1.53;10.815998;245.1;26 / 43;79509;2021-05-13 12:04:53:120
7.9384;6.7472;2.8717;7.2028;6.1857;2.455;-1.0237;0.446;-0.4638;-0.0066;-0.9069;-0.3058;10092;18.26;-31.66;-4.18;195.43;-39.11;-71.18;5;1010.59;52.567;37.517097;126.76489;34.05;NaN;;1.19;10.598014;246.5;27 / 43;80008;2021-05-13 12:04:53:619
7.178;7.356;2.2697;7.6308;5.9206;1.6995;1.6543;-1.5033;1.2752;0.7421;-0.0182;-0.4423;9540;16.56;-32.48;3.43;182.71;-31.84;-74.28;5;1010.59;51.532;37.517097;126.76489;34.05;NaN;;1.19;10.598014;246.5;27 / 43;80508;2021-05-13 12:04:54:119
5.509;5.787;2.0257;7.9599;5.4238;1.8422;2.4885;0.2423;1.4137;0.1695;-0.7739;-0.0281;7677;11.35;-35.45;1.22;183.88;-35.53;-72.49;5;1010.6;54.841;37.51708;126.764885;33.86;NaN;;1.07;10.600999;227.1;28 / 43;81008;2021-05-13 12:04:54:619
9.3452;6.7729;2.2748;6.4962;6.7859;2.8144;0.1621;-0.143;-1.8515;-1.1737;-1.5347;1.3308;9026;14.11;-36.55;0.32;188.89;-43.79;-66.58;5;1010.59;53.139;37.51708;126.764885;33.86;NaN;;1.07;10.600999;227.1;28 / 43;81508;2021-05-13 12:04:55:119
3.8797;5.8903;0.9553;6.1037;7.1593;2.7677;1.4722;-1.1486;-0.9102;-0.269;-0.1229;0.6554;8100;27.91;-28.83;3.74;191.3;-46.89;-65.61;5;1010.59;54.152;37.51706;126.764885;35.49;NaN;;1.22;10.501183;207.7;29 / 43;82008;2021-05-13 12:04:55:619
7.9647;7.768;2.5445;7.2532;6.2957;1.9813;-0.0426;-0.4143;0.3676;0.8926;-0.4411;-1.1362;8103;20.2;-32.01;0.53;187.35;-30.95;-73.18;5;1010.59;58.815;37.51706;126.764885;35.49;NaN;;1.22;10.501183;207.7;29 / 43;82507;2021-05-13 12:04:56:118
11.5716;4.1313;3.655;8.7934;3.7299;2.2213;-0.9073;3.2589;-0.1243;0.4289;-1.426;-1.4666;7588;-0.32;-34.89;-1.63;183.47;-25.13;-72.34;5;1010.6;59.578;37.517036;126.764885;35.16;NaN;;1.3;10.461178;199.5;29 / 43;83008;2021-05-13 12:04:56:619
12.1664;6.5186;3.0811;7.5801;5.9276;1.8912;-3.8036;0.8123;-0.8468;-0.0338;0.1766;1.3977;7678;18.57;-36.71;6.86;178.37;-47.18;-73;5;1010.59;56.296;37.517036;126.764885;35.16;NaN;;1.3;10.461178;199.5;29 / 43;83508;2021-05-13 12:04:57:119
8.0338;5.634;2.0384;6.1905;7.2548;2.2837;-2.0129;-1.111;-1.0043;0.2141;-0.2409;-0.7352;8441;36.72;-26.42;14.5;179.6;-47.71;-69.75;5;1010.59;53.876;37.51701;126.764885;35.85;NaN;;1.75;10.180603;199.7;29 / 43;84008;2021-05-13 12:04:57:619
5.9395;4.7956;1.7981;8.3879;4.365;2.6001;1.285;0.8555;0.1489;-0.7088;-0.4728;-1.0426;8828;11.04;-38.02;-11.41;202.05;-34.49;-69.42;5;1010.58;52.669;37.51701;126.764885;35.85;NaN;;1.75;10.180603;199.7;29 / 43;84507;2021-05-13 12:04:58:118
7.8066;6.1281;1.65;7.4138;5.9867;2.3164;1.1498;-0.0309;-0.3759;-0.0679;-0.027;0.7762;7701;21.96;-33.35;-0.28;190.12;-42.83;-71.84;5;1010.58;53.362;37.516983;126.764885;35.64;NaN;;1.71;10.378735;197.8;28 / 43;85008;2021-05-13 12:04:58:619
5.0501;5.1241;1.612;7.1575;6.3506;2.1469;1.0096;-0.2742;0.5268;0.2028;0.244;0.2279;8876;17.74;-29.92;-8.11;201.53;-40.36;-73.3;5;1010.59;54.804;37.516983;126.764885;35.64;NaN;;1.71;10.378735;197.8;28 / 43;85508;2021-05-13 12:04:59:119
11.728;7.2817;2.976;7.2029;6.3272;2.0628;-2.8326;-0.1532;-1.1136;0.0206;-0.1138;-0.0653;9147;14.4;-25.26;0.22;187.9;-40.18;-74.02;5;1010.59;54.952;37.516956;126.76488;35.55;NaN;;1.78;10.259011;194.1;29 / 43;86008;2021-05-13 12:04:59:619
4.4334;4.9756;0.8998;6.9036;6.6186;2.1691;2.6097;-0.3147;0.0025;-0.9262;0.6558;0.4498;8866;18.06;-21.51;7.48;175.77;-44.69;-75.15;5;1010.58;56.315;37.516956;126.76488;35.55;NaN;;1.78;10.259011;194.1;29 / 43;86508;2021-05-13 12:05:00:119
4.1857;5.6203;1.3605;7.1892;6.4511;1.694;-0.297;-0.9186;0.7296;0.2558;1.4203;-0.2317;9841;12.52;-27.76;9.7;167.68;-41.13;-76.74;5;1010.58;52.054;37.516933;126.76488;35.82;NaN;;1.93;10.359281;196.1;29 / 43;87009;2021-05-13 12:05:00:620
4.5878;5.7195;1.0357;7.324;6.0064;2.5401;0.4181;0.3495;-0.6212;-1.1244;0.3364;1.2287;8530;6.92;-33.78;9.3;168.06;-47.05;-71.81;5;1010.57;53.999;37.516933;126.76488;35.82;NaN;;1.93;10.359281;196.1;29 / 43;87508;2021-05-13 12:05:01:119
8.3186;5.8106;2.1763;5.5937;7.6347;2.5676;-6.5538;-2.8338;-2.563;-0.1296;0.2451;1.8238;7981;21.24;-31.76;2.81;189.54;-51.13;-65.34;5;1010.57;55.67;37.51691;126.76488;35.78;NaN;;1.81;10.353031;200.3;29 / 43;88008;2021-05-13 12:05:01:619
3.4277;4.4352;0.7999;7.4576;5.952;2.2645;1.3904;0.5769;0.1332;-0.7313;-0.7887;0.0502;11088;16.04;-28.7;-1.02;189.89;-37.37;-73.11;5;1010.56;54.13;37.51691;126.76488;35.78;NaN;;1.81;10.353031;200.3;29 / 43;88508;2021-05-13 12:05:02:119
8.0058;5.0334;2.4545;7.8542;5.8205;0.7772;0.7331;0.2695;2.2456;1.223;1.1606;-0.4085;8739;12.18;-30.1;2.7;176.71;-36.41;-84.35;5;1010.57;52.816;37.51689;126.76488;35.91;NaN;;1.57;10.280138;211.8;30 / 43;89008;2021-05-13 12:05:02:619
9.8387;5.7093;2.525;7.6918;5.995;1.033;-1.6343;-1.4598;0.9191;1.0336;1.233;-0.6713;6367;14.11;-31.91;15.57;159.22;-36.33;-80.53;5;1010.57;52.373;37.51689;126.76488;35.91;NaN;;1.57;10.280138;211.8;30 / 43;89508;2021-05-13 12:05:03:119
7.5014;5.3821;2.0562;6.734;6.8887;1.8355;0.3761;-0.0461;-0.521;-1.8541;-1.5484;1.7319;8774;0.8;-36.46;-2.72;186.99;-44.62;-74.75;5;1010.58;52.007;37.516876;126.76486;34.28;NaN;;1.64;10.179082;213.2;31 / 43;90008;2021-05-13 12:05:03:619
0.7324;5.2288;-0.2185;4.7646;8.4061;1.6754;2.8298;-4.339;0.4921;1.4135;1.7393;-0.1991;7307;41.16;-20.51;14.24;179.8;-34.8;-71.34;5;1010.58;50.259;37.516876;126.76486;34.28;NaN;;1.64;10.179082;213.2;31 / 43;90508;2021-05-13 12:05:04:119
10.5905;6.1805;2.6971;8.4606;3.6779;3.3259;3.2278;1.5391;-0.2212;-0.4578;-1.4344;-3.3078;9219;28.56;-27.45;4.76;189.44;-22.03;-68.54;5;1010.58;54.415;37.516857;126.764854;34.38;NaN;;1.85;10.042317;208.1;30 / 43;91008;2021-05-13 12:05:04:619
7.7139;4.6655;2.459;8.1652;5.0437;2.0153;3.5522;1.1069;1.5945;0.5944;0.0494;1.0859;9467;6.55;-40.56;-7.93;198.99;-50.27;-68.91;5;1010.58;53.335;37.516857;126.764854;34.38;NaN;;1.85;10.042317;208.1;30 / 43;91507;2021-05-13 12:05:05:118
8.3394;5.9978;1.5685;6.9867;6.4143;2.4926;-0.5813;-0.3331;-1.5282;-1.1273;-2.1513;0.6467;6856;15.77;-36.25;15.05;167.77;-40.85;-70.37;5;1010.58;51.765;37.51683;126.76485;35.89;NaN;;2.26;10.168043;204.6;28 / 43;92008;2021-05-13 12:05:05:619
9.0235;5.2346;2.8214;7.8009;5.4011;2.4786;-3.0517;-0.4254;-0.9255;-0.3387;-1.3772;1.7161;10888;4.62;-37.03;-10.26;200.39;-37.49;-68.56;5;1010.58;53.5;37.51683;126.76485;35.89;NaN;;2.26;10.168043;204.6;28 / 43;92510;2021-05-13 12:05:06:121
7.1968;4.7853;1.2208;6.4307;6.8916;2.706;-1.5413;-0.9882;-2.5685;-1.3968;-0.5047;3.4783;6349;6.45;-37.87;7.07;172.84;-44.65;-67.18;5;1010.58;54.247;37.51681;126.76485;36.83;NaN;;1.6;10.327066;194.2;28 / 43;93008;2021-05-13 12:05:06:619
2.8408;5.7189;-0.2322;4.477;8.6234;1.3281;0.7616;-2.7536;-0.4508;-0.0119;1.9084;-0.3756;5577;42.49;-13.49;19.76;165.76;-51.4;-78.24;5;1010.57;56.833;37.51681;126.76485;36.83;NaN;;1.6;10.327066;194.2;28 / 43;93512;2021-05-13 12:05:07:123
9.7822;5.9249;2.3265;8.3616;4.7893;1.8209;-0.2779;0.4087;0.4716;-0.1608;0.8284;-2.4645;7284;14.47;-36.95;-0.2;180;-39.39;-69.85;5;1010.57;50.694;37.516792;126.76484;37.15;NaN;;1.54;10.505496;202;28 / 43;94008;2021-05-13 12:05:07:619
10.9057;5.2784;3.0578;8.9963;3.8749;0.4717;-0.8541;0.636;2.1217;1.4073;1.5401;-1.104;6382;8.72;-38.58;4.17;174.9;-23.27;-87;5;1010.57;50.079;37.516792;126.76484;37.15;NaN;;1.54;10.505496;202;28 / 43;94507;2021-05-13 12:05:08:118
9.1405;7.2065;2.0856;6.7767;6.8901;1.6653;-1.3455;-1.8801;-0.5394;-1.888;-0.9815;1.8024;7546;19.08;-35.77;1.51;183.81;-44.64;-76.19;5;1010.56;50.906;37.516785;126.76483;35.54;NaN;;1.19;10.159565;209.5;29 / 43;95008;2021-05-13 12:05:08:619
8.1129;6.2442;3.272;7.5958;5.5488;2.772;0.5227;1.0642;-0.1736;0.4251;-1.1862;-1.1379;13791;16.66;-30.12;-12.22;206.96;-22.96;-72.51;5;1010.57;49.595;37.516785;126.76483;35.54;NaN;;1.19;10.159565;209.5;29 / 43;95508;2021-05-13 12:05:09:119
6.6147;6.5022;0.2178;6.728;6.7084;2.4295;3.1246;-1.3503;-0.8908;0.6073;1.0512;-1.4881;8111;28.05;-25.03;9.92;175.56;-34.94;-75.95;5;1010.57;49.35;37.51677;126.764824;36.38;NaN;;1.69;10.071151;202.5;28 / 43;96008;2021-05-13 12:05:09:619
6.9134;5.8294;1.7889;8.4156;4.9323;1.0107;2.6256;-0.084;2.4927;0.7338;1.7678;-2.669;7042;30.49;-23.61;11.61;167.11;-30.2;-83.15;5;1010.57;51.244;37.51677;126.764824;36.38;NaN;;1.69;10.071151;202.5;28 / 43;96509;2021-05-13 12:05:10:120
8.7206;6.3554;2.2399;8.0366;5.3835;1.6128;-0.4779;0.5718;0.3431;-0.8249;0.3281;0.2794;8957;13.66;-35.07;-0.09;184.28;-33.3;-78.65;5;1010.57;47.415;37.516747;126.764824;38.99;NaN;;1.77;10.123007;199.8;29 / 43;97007;2021-05-13 12:05:10:618
5.8967;6.4125;0.6418;6.4569;7.2285;1.4922;-0.906;-0.0416;-0.8453;-1.2154;0.5747;2.3396;7500;40.23;-18.95;6.38;185.91;-50.08;-75.15;5;1010.57;51.636;37.516747;126.764824;38.99;NaN;;1.77;10.123007;199.8;29 / 43;97508;2021-05-13 12:05:11:119
4.9289;5.9526;1.7478;6.2102;7.561;0.6591;-0.9912;-2.0425;1.6612;1.002;1.3752;0.4308;9110;39.24;-19.21;-0.26;194.74;-35.89;-75.34;5;1010.57;50.016;37.51673;126.76482;39.4;NaN;;1.54;10.077978;198.1;30 / 43;98008;2021-05-13 12:05:11:619
6.7933;6.3656;1.7868;7.4185;6.0964;1.9924;0.1503;0.3296;-0.276;0.1877;-1.6543;-0.5872;6761;30.72;-31.2;7.77;180.41;-38.44;-74.97;5;1010.56;50.604;37.51673;126.76482;39.4;NaN;;1.54;10.077978;198.1;30 / 43;98508;2021-05-13 12:05:12:119
9.6484;5.7281;2.7988;7.9311;5.5995;1.3834;-0.8991;0.3707;0.8217;0.8563;0.2012;0.3475;6502;17.94;-35.58;13.13;166.66;-34.82;-80.11;5;1010.56;50.803;37.516716;126.76481;39.46;NaN;;1.82;10.160109;207.7;30 / 43;99008;2021-05-13 12:05:12:619
7.7094;5.3705;1.277;7.0379;6.5252;2.015;-0.7808;-1.1246;-0.2688;-1.1478;0.743;1.1657;4722;24.65;-30.94;18.44;160.67;-50.96;-81.88;5;1010.56;49.001;37.516716;126.76481;39.46;NaN;;1.82;10.160109;207.7;30 / 43;99508;2021-05-13 12:05:13:119
8.7292;6.1624;2.3546;8.2134;5.3424;0.4121;-0.7161;0.9601;1.9565;1.4049;0.6293;0.7257;6256;15.2;-34.64;17.8;155.62;-33.01;-87.13;5;1010.55;44.598;37.516705;126.76479;39.06;NaN;;1.72;10.396118;225.4;30 / 43;100008;2021-05-13 12:05:13:619
9.0382;5.2935;1.6524;6.6633;6.6403;2.7707;-1.2351;-0.7382;-2.2206;-1.8696;-0.6253;3.3443;4113;11.95;-33.85;18.79;153.84;-58.89;-75.81;5;1010.56;45.302;37.516705;126.76479;39.06;NaN;;1.72;10.396118;225.4;30 / 43;100508;2021-05-13 12:05:14:119
6.0339;6.0563;1.0528;6.5421;7.1234;1.6211;0.7041;-1.3288;0.7287;1.0358;1.9909;-1.1693;3714;33.41;-17.2;27.74;154.22;-46.58;-76.08;5;1010.56;45.5;37.516705;126.76478;38.45;NaN;;0.58;10.243772;217.3;30 / 43;101008;2021-05-13 12:05:14:619
7.4836;5.75;2.3197;7.8046;5.3113;2.6547;1.2382;0.2453;-0.0996;0.7283;0.1801;-1.7498;4912;6.82;-36.24;13.17;163.16;-26.08;-76.96;5;1010.56;46.133;37.516705;126.76478;38.45;NaN;;0.58;10.243772;217.3;30 / 43;101508;2021-05-13 12:05:15:119
8.9445;5.6121;2.4275;8.0925;4.8646;2.6492;0.6814;0.8855;-0.8606;-0.8302;-0.6758;-0.3965;4975;6.53;-37.39;16.59;159.26;-33.05;-72.77;5;1010.55;47.23;37.516705;126.76478;38.45;NaN;;0.58;10.243772;217.3;30 / 43;102010;2021-05-13 12:05:15:621
7.8347;6.0409;1.8156;7.4837;5.9243;2.2511;0.2542;0.1712;-1.2254;-0.9504;-0.8484;0.5744;3727;13.77;-32.12;21.04;155.7;-43.91;-74.25;5;1010.56;46.933;37.516705;126.76478;38.45;NaN;;0.58;10.243772;217.3;30 / 43;102508;2021-05-13 12:05:16:119
7.0469;6.2685;1.0251;7.0168;6.6111;1.7967;0.0428;-0.4305;-0.749;-0.1032;-0.0579;0.3156;3750;21.32;-28.78;21.45;158.61;-42.39;-75.64;5;1010.55;47.734;37.516705;126.76476;38.42;NaN;;0;10.288792;;31 / 43;103008;2021-05-13 12:05:16:619
7.2498;6.0744;1.677;7.352;6.1541;2.0604;0.3229;-0.2367;-0.0869;0.6239;0.0646;-0.4908;4370;16.47;-31.82;19.88;159.31;-34.1;-73.09;5;1010.55;45.712;37.516705;126.76476;38.42;NaN;;0;10.288792;;31 / 43;103508;2021-05-13 12:05:17:119
8.1464;5.9276;2.334;7.7936;5.5269;2.21;0.2102;0.41;-0.0534;-0.0882;-0.1078;0.0407;4521;11.95;-35.28;16.72;161.02;-34.3;-74.17;5;1010.55;44.738;37.516705;126.764755;38.4;NaN;;0;10.310618;;30 / 43;104008;2021-05-13 12:05:17:619
7.9657;5.9974;2.0076;7.5599;5.8875;2.0871;-0.0142;0.1796;-0.2996;-0.3907;-0.0806;0.4408;4077;13.28;-33.94;21.7;154.12;-41.66;-75.77;5;1010.55;43.808;37.516705;126.764755;38.4;NaN;;0;10.310618;;30 / 43;104511;2021-05-13 12:05:18:122
6.9665;6.1908;1.2845;7.099;6.5103;1.8411;0.0019;-0.3898;-0.4582;-0.011;-0.0241;0.0162;4189;16.39;-31.42;19.02;158.57;-41.6;-75.46;5;1010.56;43.623;37.516705;126.76475;37.72;NaN;;0;10.303111;;30 / 43;105008;2021-05-13 12:05:18:619
7.1523;6.1145;1.4347;7.2271;6.3823;1.7902;0.1271;-0.3929;0.1383;0.4397;0.281;-0.2977;4674;22.17;-28.4;24.81;155.35;-35.6;-73.95;5;1010.55;41.78;37.516705;126.76475;37.72;NaN;;0;10.303111;;30 / 43;105508;2021-05-13 12:05:19:119
7.6776;6.044;1.8591;7.6237;5.829;2.0179;0.2265;0.1877;0.0153;0.2906;0.1719;-0.4995;4620;14.65;-34.05;17.6;160.58;-34.51;-75.51;5;1010.55;41.563;37.516705;126.76475;37.72;NaN;;0;10.303111;;30 / 43;106008;2021-05-13 12:05:19:619
7.6167;6.0614;1.7485;7.4726;6.0057;2.0642;0.1097;0.0642;-0.4258;-0.3426;-0.0427;0.2982;4609;11.92;-33.59;16.85;160.25;-37.76;-74.56;5;1010.56;39.964;37.516705;126.76475;37.72;NaN;;0;10.303111;;30 / 43;106509;2021-05-13 12:05:20:120
6.9702;5.9615;1.3659;6.5218;6.8756;2.5224;0.2574;-0.8471;-1.6817;-0.1197;-0.6072;-0.1206;4437;26.1;-25.13;25.62;160.24;-44.52;-68.86;5;1010.56;40.431;37.51671;126.76473;36.16;NaN;;0;10.307771;;30 / 43;107008;2021-05-13 12:05:20:619
7.3364;5.7397;1.2787;7.4888;6.0109;1.9892;1.9913;-0.862;-0.1955;1.3233;0.4645;-2.2916;3635;12.79;-24.41;26.74;143.09;-27.78;-75.17;5;1010.56;41.254;37.51671;126.76473;36.16;NaN;;0;10.307771;;30 / 43;107509;2021-05-13 12:05:21:120
9.2172;5.5549;2.7823;8.4803;4.3431;2.3222;0.5632;1.2099;0.8706;-0.7916;-1.1206;-0.1358;4199;0.94;-33.78;22.21;147.96;-26.29;-74.69;5;1010.56;42.618;37.51671;126.76473;36.16;NaN;;0;10.307771;;29 / 43;108008;2021-05-13 12:05:21:619
8.2984;5.8691;1.5312;7.3515;6.1717;2.0087;0.2342;-0.0753;-1.5669;-1.4391;-1.3251;1.118;3070;9.6;-25.61;26.68;140.98;-49.02;-75.95;5;1010.56;44.878;37.51671;126.76473;36.16;NaN;;0;10.307771;;29 / 43;108507;2021-05-13 12:05:22:118
6.3022;6.1583;0.5617;6.8207;6.8397;1.6933;0.5447;-1.1622;-0.2072;1.2273;0.499;-0.3088;4429;23.49;-12.81;31.33;140.8;-44.22;-76.06;5;1010.56;43.369;37.51671;126.76473;36.16;NaN;;0;10.307771;;29 / 43;109008;2021-05-13 12:05:22:619
7.8685;5.9009;2.5212;7.789;5.6059;2.0189;0.0721;0.2284;0.3323;0.1269;-0.251;-0.1048;3862;9.71;-26.32;25.86;143.43;-36.88;-75.44;5;1010.55;45.376;37.51671;126.76473;36.16;NaN;;0;10.307771;;29 / 43;109508;2021-05-13 12:05:23:119
7.6307;6.0128;1.8358;7.3604;6.2145;1.837;0.0121;-0.2705;0.0693;0.0246;-0.0138;0.3532;3447;14.04;-22.85;30.5;140.42;-40.94;-75.88;5;1010.55;44.355;37.51671;126.76473;36.16;NaN;;0;10.307771;;30 / 43;110008;2021-05-13 12:05:23:619
7.3552;6.071;1.5586;7.4306;6.1508;1.7674;0.0126;-0.1993;-0.0156;0.174;0.0297;-0.0475;3565;15.68;-21.58;32.47;138.99;-38.84;-76.62;5;1010.55;43.62;37.51671;126.76473;36.16;NaN;;0;10.307771;;30 / 43;110508;2021-05-13 12:05:24:119
7.5185;6.0666;1.5781;7.5107;6.0867;1.6468;0.0072;-0.0926;-0.0028;0.0803;0.0034;-0.0157;3565;13.54;-22.02;29.1;139.44;-38.37;-77.63;5;1010.56;40.471;37.51671;126.76473;36.16;NaN;;0;10.307771;;30 / 43;111008;2021-05-13 12:05:24:619
7.5332;6.0224;1.5877;7.5166;6.073;1.6704;0.0783;-0.1043;-0.0236;0.0966;0.0475;-0.1664;3629;14.99;-22.58;33.36;137.54;-36.96;-77.24;5;1010.55;40.409;37.51671;126.76473;36.16;NaN;;0;10.307771;;30 / 43;111508;2021-05-13 12:05:25:119
7.7823;6.0176;1.794;7.6812;5.8407;1.748;0.0599;0.1415;0.058;0.0515;0.0204;-0.0912;3624;12.39;-24.03;27.9;140.33;-37.18;-77.55;5;1010.56;39.169;37.5167;126.76473;35.85;NaN;;0;10.146649;;29 / 43;112008;2021-05-13 12:05:25:619
7.4182;6.0751;1.6534;7.5011;6.0901;1.6779;-0.0358;-0.076;-0.0887;-0.0952;-0.0735;0.2288;3514;15.08;-22.03;33.53;135.85;-39.12;-77.63;5;1010.56;38.775;37.5167;126.76473;35.85;NaN;;0;10.146649;;29 / 43;112508;2021-05-13 12:05:26:119
6.9155;6.0782;1.2266;7.2162;6.4211;1.6933;0.0618;-0.5172;-0.1545;0.2387;0.1536;-0.1611;3227;17.83;-18.13;30.5;139.68;-40.9;-76.79;5;1010.56;38.825;37.5167;126.76473;35.85;NaN;;0;10.146649;;29 / 43;113008;2021-05-13 12:05:26:619
8.1385;5.9543;2.0373;7.9396;5.4374;1.8891;-0.029;0.5079;0.0465;-0.0072;-0.0301;-0.1166;3460;10.72;-26.15;31.38;138.81;-33.67;-76.62;5;1010.56;39.803;37.5167;126.76473;35.85;NaN;;0;10.146649;;29 / 43;113510;2021-05-13 12:05:27:121
8.1454;5.98;1.9354;7.8529;5.607;1.7502;0.2267;0.3452;0.1118;-0.3556;-0.0206;0.3503;3549;7.41;-26.63;27.1;139.83;-34.87;-77.44;5;1010.56;41.959;37.516693;126.76473;35.57;NaN;;0;10.184537;;28 / 43;114008;2021-05-13 12:05:27:619
7.8915;5.9974;1.7612;7.5183;6.0896;1.6007;-0.6296;0.0811;-0.3623;-0.6544;-0.1993;0.8875;3278;13.91;-23.13;31.69;137.31;-42.36;-77.9;5;1010.56;42.838;37.516693;126.76473;35.57;NaN;;0;10.184537;;28 / 43;114510;2021-05-13 12:05:28:121
7.2895;6.1299;1.0028;7.246;6.449;1.4406;-0.3591;-0.4414;0.1183;0.4801;0.4639;-0.2936;3263;20.26;-16.32;34.5;134.87;-41.12;-78.76;5;1010.56;43.726;37.516693;126.76473;35.57;NaN;;0;10.184537;;28 / 43;115008;2021-05-13 12:05:28:619
7.3713;6.0881;1.511;7.6527;5.8537;1.8278;0.2595;0.0612;0.0388;0.4184;0.2409;-0.4593;3694;11.03;-24.82;28.89;139.87;-33.51;-76.63;5;1010.55;46.094;37.516693;126.76473;35.57;NaN;;0;10.184537;;28 / 43;115508;2021-05-13 12:05:29:119
8.5338;5.7558;2.2731;7.9466;5.3951;1.9785;0.3929;0.4752;-0.0887;-0.1658;-0.0862;-0.3082;3771;11.28;-25.48;31.24;138.38;-33.38;-76.02;5;1010.55;46.639;37.516693;126.76473;35.57;NaN;;0;10.184537;;28 / 43;116008;2021-05-13 12:05:29:619
7.9154;5.9406;2.2043;7.7347;5.7134;1.9239;-0.0854;0.2255;5.00E-04;-0.305;-0.1725;0.3802;3754;8.15;-25.67;30.78;136.83;-35.63;-76.03;5;1010.55;44.687;37.516693;126.76473;35.57;NaN;;0;10.184537;;28 / 43;116508;2021-05-13 12:05:30:119
7.846;6.0094;1.5678;7.3013;6.3417;1.6264;-0.3025;-0.2131;-0.3302;-0.5033;0.0197;0.5922;3321;12.92;-22.04;30.07;137.83;-40.29;-77.44;5;1010.55;44.51;37.516693;126.76473;35.57;NaN;;0;10.184537;;28 / 43;117008;2021-05-13 12:05:30:619
7.3634;5.9061;1.1657;7.2368;6.3851;1.7409;0.5683;-0.6105;-0.0205;0.6613;0.6381;-1.2438;3671;11.4;-22.42;29.85;134.57;-30.03;-79.71;5;1010.55;43.184;37.516693;126.76473;35.57;NaN;;0;10.184537;;28 / 43;117508;2021-05-13 12:05:31:119
8.7159;5.8852;2.4432;8.4423;4.7488;1.5321;0.1548;1.1225;0.919;-0.0408;0.1591;-0.0376;3565;3.44;-26.45;28.2;134.84;-37.31;-76.57;5;1010.55;42.666;37.516693;126.76473;35.57;NaN;;0;10.184537;;28 / 43;118008;2021-05-13 12:05:31:619
7.5547;6.0956;1.3529;7.1575;6.529;1.5208;-0.4167;-0.3747;-0.504;-0.6689;-0.1378;1.0444;3391;12.15;-22.17;29.87;136.48;-44.98;-77.98;5;1010.55;44.309;37.516693;126.76473;35.57;NaN;;0;10.184537;;28 / 43;118508;2021-05-13 12:05:32:119
6.9685;6.0378;1.3413;7.285;6.3206;1.7747;0.2669;-0.5163;0.212;0.8576;0.2616;-0.6206;3193;19.14;-15.41;31.22;137.64;-40.13;-76.31;5;1010.55;43.942;37.51669;126.76473;35.32;NaN;;0;10.291588;;28 / 43;119008;2021-05-13 12:05:32:619
7.8528;5.968;2.0394;7.9259;5.4975;1.7687;0.3566;0.3216;0.7434;0.6809;0.3105;-0.6339;3752;9.23;-25.77;25.86;142.57;-32.91;-75.78;5;1010.55;44.661;37.51669;126.76473;35.32;NaN;;0;10.291588;;28 / 43;119509;2021-05-13 12:05:33:120
8.5684;5.893;2.0493;8.0659;5.2868;1.7779;0.2768;0.616;0.332;-0.0201;0.2003;-0.1924;3509;7.83;-25.45;23.5;143.53;-38.05;-76.61;5;1010.55;44.887;37.51669;126.76473;35.32;NaN;;0;10.291588;;28 / 43;120008;2021-05-13 12:05:33:619
6.9083;6.1904;1.15;7.1221;6.5247;1.6952;-0.108;-0.4246;-0.6981;-0.4085;-0.2374;0.5758;3256;12.94;-22.2;33.44;135.81;-41.71;-76.61;5;1010.55;46.572;37.51669;126.76473;35.32;NaN;;0;10.291588;;28 / 43;120508;2021-05-13 12:05:34:119
6.8529;6.1497;1.2143;6.8475;6.8513;1.5304;0.0581;-0.8115;-0.143;0.18;-0.087;0.4023;3183;20.41;-14.03;36.02;133.44;-44.32;-77.4;5;1010.55;48.43;37.51668;126.764725;34.61;NaN;;0;10.317671;;28 / 43;121008;2021-05-13 12:05:34:619
8.3216;5.6864;2.0681;7.8603;5.5977;1.747;0.4679;0.1678;0.4124;-0.0096;-0.2288;-0.8892;3851;17.86;-22.19;30.38;141.41;-34.81;-77.47;5;1010.55;51.392;37.51668;126.764725;34.61;NaN;;0;10.317671;;28 / 43;121508;2021-05-13 12:05:35:119
8.4322;5.8527;2.5229;8.3926;4.808;1.6179;0.4301;0.8436;0.9248;-0.8095;-0.2291;-0.5304;5780;11.65;-37.54;14.95;162.82;-29.36;-79.09;5;1010.55;54.545;37.516678;126.764725;34.59;NaN;;0;10.284439;;28 / 43;122008;2021-05-13 12:05:35:619
8.1776;6.0115;2.1664;7.7377;5.7752;1.7163;0.5781;0.2775;0.2076;0.1174;-0.1016;-0.431;4464;14.45;-34.8;17.84;160.32;-38.2;-75.25;5;1010.56;55.507;37.516678;126.764725;34.59;NaN;;0;10.284439;;28 / 43;122508;2021-05-13 12:05:36:119
8.1824;5.9457;2.152;7.8088;5.6159;1.9115;0.2344;0.3937;0.2234;-0.4825;0.1271;0.0427;4584;14.49;-36.41;16.64;161.59;-34.94;-76.25;5;1010.56;59.767;37.516678;126.764725;34.59;NaN;;0;10.284439;;29 / 43;123008;2021-05-13 12:05:36:619
7.9209;6.0381;1.3262;7.5504;5.9433;1.9594;0.12;0.1672;-0.5161;-0.3598;0.4963;0.1422;4576;17.68;-34.6;16.84;162.94;-39.62;-76.85;5;1010.54;62.574;37.516678;126.764725;34.59;NaN;;0;10.284439;;29 / 43;123508;2021-05-13 12:05:37:119
8.2669;5.8181;1.7075;7.4747;5.7291;2.7342;0.0767;0.2624;-1.7876;-0.5366;-0.8657;0.2372;4576;16.08;-35.66;16.19;165.69;-38.14;-72.33;5;1010.51;62.29;37.516678;126.764725;34.59;NaN;;0;10.284439;;29 / 43;124013;2021-05-13 12:05:37:624
7.1099;6.2062;0.6507;6.9836;6.6273;1.865;-0.1044;-0.4667;-1.1439;-0.2408;-0.0076;0.4831;5036;18.01;-34.27;16.4;164.73;-42.52;-75.05;5;1010.52;61.074;37.516678;126.764725;34.59;NaN;;0;10.284439;;29 / 43;124511;2021-05-13 12:05:38:122
6.9062;6.1559;0.9765;7.021;6.584;1.8779;0.175;-0.6378;-0.5723;0.5085;0.0194;-0.1081;4888;26.29;-29.03;20.47;163.23;-42.17;-75.03;5;1010.54;56.708;37.516678;126.764725;34.59;NaN;;0;10.284439;;29 / 43;125008;2021-05-13 12:05:38:619
7.5472;5.9529;1.959;7.5949;5.9206;1.8535;0.2829;-0.081;0.462;0.7656;0.3677;-0.6188;5630;15.87;-38.12;12.49;169.73;-33.21;-75.46;5;1010.55;55.308;37.516678;126.764725;34.59;NaN;;0;10.284439;;29 / 43;125508;2021-05-13 12:05:39:119
8.053;6.008;2.2635;7.8472;5.4926;2.1031;-0.1626;0.4703;-0.2948;-0.1684;-0.703;0.6332;4904;11.18;-37.04;16.85;160.84;-34.06;-75;5;1010.55;53.068;37.516678;126.764725;34.59;NaN;;0;10.284439;;29 / 43;126008;2021-05-13 12:05:39:619
5.5353;6.649;0.9074;7.26;6.4439;1.3925;-0.3908;-0.4009;-0.0017;0.0305;0.6523;0.3262;3760;17.36;-26.37;25.75;150.45;-35.34;-72.91;5;1010.56;51.284;37.516678;126.764725;34.59;NaN;;0;10.284439;;29 / 43;126508;2021-05-13 12:05:40:119
11.6199;4.6217;3.1916;8.0571;4.9609;2.5772;-0.834;0.7199;-0.8986;-0.9332;1.1661;1.0571;4726;11.59;-33.5;17.35;161.62;-30.39;-72.26;5;1010.56;55.071;37.516678;126.764725;34.59;NaN;;0;10.284439;;29 / 43;127008;2021-05-13 12:05:40:619
8.1098;5.57;2.3833;8.3651;4.3947;2.6233;1.034;0.9503;-0.5109;0.3229;0.3931;-1.2309;4615;-5.88;-32.55;18.7;145.77;-25.11;-77.25;5;1010.55;53.474;37.516678;126.764725;34.59;NaN;;0;10.284439;;29 / 43;127509;2021-05-13 12:05:41:120
5.2126;6.1884;-0.1829;5.623;7.9349;1.2611;1.8471;-1.7785;-0.6267;0.1249;-0.3869;0.4673;2939;29.04;-0.01;28.1;141.85;-50.46;-77.21;5;1010.55;52.495;37.51667;126.76472;34.43;NaN;;0.37;10.242631;155.9;29 / 43;128008;2021-05-13 12:05:41:619
8.0099;5.1843;2.4767;8.5234;4.5395;1.7075;1.2177;0.9526;0.7763;-2.5317;-2.0195;-1.0285;5502;7.59;-34.52;20.19;155.31;-30.17;-73.8;5;1010.55;48.371;37.51667;126.76472;34.43;NaN;;0.37;10.242631;155.9;29 / 43;128508;2021-05-13 12:05:42:119
7.4586;5.6648;2.1171;6.7342;6.7714;2.2291;-1.1329;-0.7366;-0.1521;0.8307;1.1787;1.7199;8643;12.23;-36.27;13.14;166.86;-43.67;-71.68;5;1010.56;49.348;37.51667;126.76472;34.43;NaN;;0.37;10.242631;155.9;28 / 43;129008;2021-05-13 12:05:42:619
6.0894;6.3297;1.6767;6.7798;7.0647;0.5434;-1.2325;-0.8415;1.4122;-0.2349;0.8456;0.9581;5714;35.9;-19.57;26.73;154.64;-40.95;-79.12;5;1010.55;51.505;37.51667;126.76472;34.43;NaN;;0.37;10.242631;155.9;28 / 43;129508;2021-05-13 12:05:43:119
7.129;5.9108;2.5726;7.4233;6.006;2.2345;0.794;-0.3104;0.3887;0.9736;-0.4169;-1.2618;6296;30.61;-25.04;19.82;166.16;-37.77;-73.25;5;1010.54;52.436;37.51667;126.76472;34.43;NaN;;0.37;10.242631;155.9;28 / 43;130008;2021-05-13 12:05:43:619
8.0609;5.8366;2.8265;8.1939;5.0815;1.7915;0.5821;0.6499;1.0881;0.0792;-0.1693;-1.0621;6488;18.01;-34.19;14.74;164.82;-31.21;-77.67;5;1010.55;49.19;37.51667;126.76472;34.43;NaN;;0.37;10.242631;155.9;28 / 43;130508;2021-05-13 12:05:44:119
8.1936;5.9006;2.472;7.8201;5.5638;2.0151;0.2571;0.3846;0.0914;-0.6237;-0.3632;0.0751;6184;14.6;-35.74;21.06;157.9;-34.57;-75.55;5;1010.55;48.192;37.51667;126.76472;34.43;NaN;;0.37;10.242631;155.9;28 / 43;131008;2021-05-13 12:05:44:619
7.115;6.2585;1.1722;7.045;6.5944;1.747;-0.1009;-0.3843;-0.5653;-0.1589;0.0159;0.227;5441;24.43;-26.23;25.75;154.69;-39.75;-74.35;5;1010.56;44.385;37.51667;126.76472;34.43;NaN;;0.37;10.242631;155.9;28 / 43;131508;2021-05-13 12:05:45:119
7.0945;6.1819;1.4333;7.2267;6.3598;1.8704;0.146;-0.2836;-0.1354;0.2401;0.1789;-0.2463;5645;23.47;-27.24;25.9;153.72;-36.17;-75.06;5;1010.55;43.744;37.51667;126.76472;34.43;NaN;;0.37;10.242631;155.9;28 / 43;132008;2021-05-13 12:05:45:619
7.6868;6.0426;2.0226;7.5966;5.8419;2.0822;0.2569;0.1205;-0.0054;0.2404;0.0346;-0.3554;6039;17.74;-32.08;19.91;159.71;-35.78;-74.59;5;1010.56;42.681;37.51667;126.76472;34.43;NaN;;0.37;10.242631;155.9;28 / 43;132508;2021-05-13 12:05:46:119
7.8531;6.0385;2.1462;7.6652;5.7758;2.0136;0.1387;0.2381;0.094;0.0579;-0.0054;-0.0994;6071;14.82;-33.14;19.79;157.64;-37.98;-75.58;5;1010.55;42.684;37.51667;126.76472;34.43;NaN;;0.37;10.242631;155.9;29 / 43;133008;2021-05-13 12:05:46:619
7.4757;6.0984;1.7677;7.3474;6.2278;1.844;-0.0885;-0.0946;-0.2013;-0.2306;-0.0241;0.2611;5738;19.62;-29.88;22.35;156.96;-40.11;-76.05;5;1010.55;42.839;37.51667;126.76472;34.43;NaN;;0.37;10.242631;155.9;29 / 43;133508;2021-05-13 12:05:47:119
7.2734;6.1292;1.6719;7.3124;6.2787;1.8103;-0.0452;-0.1842;-0.1772;-0.0937;-0.0362;0.113;5746;21.52;-29.37;23.3;156.8;-38.87;-75.86;5;1010.55;42.537;37.51667;126.76472;34.43;NaN;;0.37;10.242631;155.9;30 / 43;134009;2021-05-13 12:05:47:620
7.5222;6.0888;1.9299;7.5246;5.9899;1.9162;0.0788;0.0211;0.0889;0.181;0.0375;-0.2125;6003;19.7;-30.84;20.49;159.86;-37.65;-75.71;5;1010.56;46.023;37.51667;126.76472;34.43;NaN;;0.37;10.242631;155.9;30 / 43;134508;2021-05-13 12:05:48:119
7.6834;6.0696;1.935;7.5783;5.9196;1.9229;0.0951;0.1;0.0662;0.0899;0.048;-0.1425;5791;17.34;-31.51;19.99;158.41;-37.13;-75.76;5;1010.55;52.289;37.51667;126.76472;34.43;NaN;;0.37;10.242631;155.9;30 / 43;135008;2021-05-13 12:05:48:619
7.579;6.0953;1.8618;7.4611;6.0904;1.8464;-0.0241;0.0034;-0.0809;-0.1544;-0.02;0.1611;5791;18.85;-31.82;19.55;159.41;-38.39;-76.1;5;1010.55;57.105;37.51667;126.76472;34.43;NaN;;0.37;10.242631;155.9;30 / 43;135508;2021-05-13 12:05:49:119
7.448;6.1134;1.8385;7.4062;6.1622;1.8292;-0.0729;-0.0641;-0.0604;-0.0891;-0.0219;0.1476;5865;19.68;-31.22;21.55;157.32;-38.93;-76.13;5;1010.55;49.187;37.51667;126.76472;34.43;NaN;;0.37;10.242631;155.9;29 / 43;136008;2021-05-13 12:05:49:619
7.4254;6.1069;1.7348;7.3957;6.179;1.8151;-0.0382;-0.0896;-0.0946;0.0162;0.0296;-0.0186;5748;20.19;-30.16;25.47;153.7;-38.58;-76.03;5;1010.55;46.818;37.51667;126.76472;34.43;NaN;;0.37;10.242631;155.9;29 / 43;136508;2021-05-13 12:05:50:119
7.4836;6.1056;1.9621;7.5154;6.0046;1.9065;-0.07;0.0695;0.0116;0.1769;0.1204;0.0727;5933;17.16;-31.18;21.1;156.81;-37.76;-75.77;5;1010.55;45.14;37.51667;126.76472;34.43;NaN;;0.37;10.242631;155.9;30 / 43;137008;2021-05-13 12:05:50:619
7.2813;6.1104;1.8731;7.2791;6.3421;1.7212;-0.05;-0.3159;0.1096;0.3111;-0.124;0.2221;4801;21.79;-24.61;28.28;150.75;-39.45;-74.36;5;1010.55;48.989;37.51667;126.76472;34.43;NaN;;0.37;10.242631;155.9;30 / 43;137508;2021-05-13 12:05:51:119
7.8022;5.9618;2.2666;7.5676;5.8734;2.0986;0.2229;-0.0636;0.2314;0.4921;-0.0278;-0.5158;4727;15.69;-28.42;23.03;153.36;-35.55;-74.13;5;1010.55;52.317;37.51667;126.76472;34.43;NaN;;0.37;10.242631;155.9;30 / 43;138008;2021-05-13 12:05:51:619
8.4007;5.8735;2.4963;7.8805;5.4348;2.1288;-0.1091;0.5287;0.0889;-0.4864;-0.0438;0.4326;5347;10.03;-33.01;19.28;156.13;-33.66;-74.88;5;1010.55;53.829;37.51667;126.76472;34.43;NaN;;0.37;10.242631;155.9;30 / 43;138508;2021-05-13 12:05:52:119
7.8566;6.0039;2.1434;7.3683;6.1299;2.0743;-0.0795;-0.0879;-0.4399;-0.8145;-0.2719;0.5327;4917;14.28;-33.76;21.29;156.91;-38.69;-74.28;5;1010.55;56.171;37.51667;126.76472;34.43;NaN;;0.37;10.242631;155.9;28 / 43;139008;2021-05-13 12:05:52:619
6.9617;6.1186;1.4795;7.026;6.4385;2.3132;-0.0859;-0.3098;-0.6772;0.0564;0.2609;-0.1194;5701;23.32;-31.39;21.91;162.03;-41.04;-71.78;5;1010.55;54.906;37.51667;126.76472;34.43;NaN;;0.37;10.242631;155.9;28 / 43;139508;2021-05-13 12:05:53:119
7.4606;6.0241;2.1968;7.4799;5.8904;2.3504;0.1701;0.1068;-0.2291;0.1459;-0.0337;-0.4397;6155;19.02;-32.89;17.34;165.38;-36.92;-72.56;5;1010.55;49.36;37.51667;126.76472;34.43;NaN;;0.37;10.242631;155.9;29 / 43;140008;2021-05-13 12:05:53:619
7.7289;6.0115;2.4874;7.6407;5.7431;2.1925;0.0977;0.2265;0.1865;0.1896;-0.0768;-0.1868;6240;18.38;-34.51;20.91;159.92;-36.83;-74.16;5;1010.55;47.908;37.51667;126.76472;34.43;NaN;;0.37;10.242631;155.9;29 / 43;140508;2021-05-13 12:05:54:119
7.36;6.0939;1.9771;7.2649;6.2823;1.9809;-0.092;-0.1731;-0.2642;-0.2645;-0.1436;0.3224;5769;17.18;-32.64;19.38;160.46;-39.84;-74.75;5;1010.55;46.809;37.51667;126.76472;34.43;NaN;;0.37;10.242631;155.9;30 / 43;141008;2021-05-13 12:05:54:619
7.1851;6.173;1.7523;7.243;6.3294;1.9097;-0.1175;-0.2052;-0.149;-0.071;-0.0228;0.1337;5749;22.22;-29.45;24.7;155.38;-38.79;-74.76;5;1010.55;46.949;37.51667;126.76472;34.43;NaN;;0.37;10.242631;155.9;30 / 43;141508;2021-05-13 12:05:55:119
7.1742;6.1511;1.7379;7.2888;6.2703;1.9306;0.0131;-0.2004;-0.0949;0.0698;0.0309;-0.0952;6016;20.9;-31.57;22.77;158.09;-37.46;-74.73;5;1010.55;46.098;37.51667;126.76472;34.43;NaN;;0.37;10.242631;155.9;30 / 43;142008;2021-05-13 12:05:55:619
7.5304;6.0761;2.0312;7.5124;5.9713;2.0194;0.1238;0.0237;0.088;0.2259;0.0405;-0.2659;6011;18.32;-31.3;19.16;160.35;-36.59;-74.87;5;1010.55;45.791;37.51667;126.76472;34.43;NaN;;0.37;10.242631;155.9;30 / 43;142508;2021-05-13 12:05:56:119
7.7443;6.0683;2.1547;7.5917;5.8762;2.0019;0.066;0.1748;0.1059;-0.0128;-0.0051;0.0153;5973;17.09;-33.68;21.51;157.27;-36.81;-75.23;5;1010.55;46.146;37.51667;126.76472;34.43;NaN;;0.37;10.242631;155.9;29 / 43;143008;2021-05-13 12:05:56:619
7.5137;6.1042;1.9467;7.4129;6.1197;1.9412;-0.0481;-0.0038;-0.0907;-0.1745;-0.0293;0.2049;5781;20.3;-31.1;19.33;161.16;-39.41;-75.52;5;1010.55;45.239;37.51667;126.76472;34.43;NaN;;0.37;10.242631;155.9;29 / 43;143508;2021-05-13 12:05:57:119
7.2885;6.1309;1.7858;7.3474;6.2028;1.9265;0.0029;-0.1342;-0.0721;0.0567;0.0156;-0.0818;5787;20.66;-30.92;20.75;159.57;-39.24;-75.31;5;1010.55;43.015;37.51667;126.76472;34.43;NaN;;0.37;10.242631;155.9;29 / 43;144008;2021-05-13 12:05:57:619
7.4025;6.1158;1.8936;7.4286;6.0961;1.9555;0.0428;-0.0525;0.048;0.1276;0.0585;-0.153;5981;20.13;-30.89;23.78;155.69;-38.43;-75.25;5;1010.55;41.161;37.51667;126.76472;34.43;NaN;;0.37;10.242631;155.9;29 / 43;144508;2021-05-13 12:05:58:119
7.5027;6.095;1.9953;7.4877;6.0123;1.9893;0.07;0.0257;0.0473;0.1133;0.023;-0.1474;5954;18.72;-32.15;19.04;161.16;-37.81;-75.12;5;1010.55;39.696;37.51667;126.76472;34.43;NaN;;0.37;10.242631;155.9;28 / 43;145010;2021-05-13 12:05:58:621
7.6002;6.0857;2.0449;7.4867;6.0192;1.9721;-0.008;0.0547;0.0039;-0.0614;-0.0234;0.0949;5840;18.56;-32.58;22.36;157.98;-38.98;-75.33;5;1010.55;38.033;37.51667;126.76472;34.43;NaN;;0.37;10.242631;155.9;28 / 43;145508;2021-05-13 12:05:59:119
7.4531;6.1138;1.9148;7.3969;6.1465;1.9177;-0.063;-0.0419;-0.0506;-0.092;0.0089;0.1086;5840;17.39;-32.44;19.55;158.54;-38.81;-75.47;5;1010.55;38.313;37.51667;126.76472;34.43;NaN;;0.37;10.242631;155.9;26 / 43;146009;2021-05-13 12:05:59:620
7.3638;6.1199;1.8806;7.3763;6.1678;1.9286;-0.0209;-0.0849;-0.0744;-0.0434;-0.0112;0.0582;5840;19.66;-31.74;19.95;160.44;-38.97;-75.35;5;1010.55;36.821;37.51667;126.76472;34.43;NaN;;0.37;10.242631;155.9;26 / 43;146508;2021-05-13 12:06:00:119
7.4113;6.1227;1.8981;7.4191;6.1148;1.9331;5.00E-04;-0.0483;0.0141;0.0514;0.0311;-0.0524;5840;20.41;-32.06;22.87;157.07;-38.57;-75.4;5;1010.55;36.343;37.51667;126.76472;34.43;NaN;;0.37;10.242631;155.9;27 / 43;147008;2021-05-13 12:06:00:619
7.4384;6.1035;1.9343;7.4255;6.0993;1.9574;0.0252;-0.0483;-0.0621;0.0591;-0.0334;-0.0825;5840;17.83;-33.29;20.57;158.6;-37.74;-75.17;5;1010.55;36.677;37.51667;126.76472;34.43;NaN;;0.37;10.242631;155.9;27 / 43;147508;2021-05-13 12:06:01:119
7.552;6.0953;1.985;7.4841;6.0206;1.9779;0.0405;0.0215;0.0355;0.0987;0.009;-0.0687;5840;18.49;-31.3;20.81;157.85;-37.9;-75.08;5;1010.54;36.136;37.51667;126.76472;34.43;NaN;;0.37;10.242631;155.9;27 / 43;148008;2021-05-13 12:06:01:619
7.5096;6.1213;1.9764;7.4511;6.0784;1.9247;-0.0254;0.0118;0.0238;-0.0392;-0.0136;0.1097;5840;17.16;-32.85;18.89;160.09;-38.3;-75.52;5;1010.54;36.215;37.51667;126.76472;34.43;NaN;;0.37;10.242631;155.9;27 / 43;148508;2021-05-13 12:06:02:119
7.4582;6.0994;1.9104;7.4037;6.1397;1.9129;-0.0252;-0.0453;-0.0619;-0.0976;-0.0164;0.0995;5840;18.97;-32.11;20.97;158.6;-38.76;-75.51;5;1010.54;35.39;37.51667;126.76472;34.43;NaN;;0.37;10.242631;155.9;28 / 43;149008;2021-05-13 12:06:02:619
6.9757;6.2103;1.5815;7.4197;6.1135;1.9348;0.1666;-0.1129;0.0817;0.1196;0.1086;-0.2253;5840;23.01;-31.02;14.77;167.85;-38.56;-75.38;5;1010.54;36.75;37.51667;126.76472;34.43;NaN;;0.37;10.242631;155.9;28 / 43;149508;2021-05-13 12:06:03:119
7.3918;6.0614;1.8608;7.3686;6.153;2.0036;0.1114;-0.1719;-0.1562;0.2128;-0.0897;-0.2463;5840;22.04;-31.71;16.97;165.47;-38.86;-74.79;5;1010.55;37.342;37.51667;126.76472;34.43;NaN;;0.37;10.242631;155.9;30 / 43;150008;2021-05-13 12:06:03:619
7.6263;6.0843;2.0678;7.5409;5.9556;1.9585;0.0787;0.053;0.2135;0.2396;0.1499;-0.2542;6017;18.79;-31.25;18.12;161.84;-37.4;-75.44;5;1010.55;38.92;37.51667;126.76472;34.43;NaN;;0.37;10.242631;155.9;30 / 43;150508;2021-05-13 12:06:04:119
7.6437;6.0748;2.0921;7.527;5.9813;1.9333;0.0474;0.0821;0.1125;-0.064;0.0605;0.1121;5914;18.84;-32.06;21.18;158.55;-39.38;-75.58;5;1010.55;37.085;37.51667;126.76472;34.43;NaN;;0.37;10.242631;155.9;30 / 43;151009;2021-05-13 12:06:04:620
7.6889;6.0977;2.0332;7.5323;5.9682;1.9536;0.0086;0.1323;0.0227;-0.114;-0.019;0.0963;5758;17.31;-33.26;18.61;159.93;-39.19;-75.74;5;1010.55;35.982;37.51667;126.76472;34.43;NaN;;0.37;10.242631;155.9;30 / 43;151508;2021-05-13 12:06:05:119
7.7224;6.071;2.0226;7.4097;6.1537;1.8435;-0.235;0.0332;-0.0512;-0.2808;0.0057;0.3586;5709;18.65;-31.24;18.36;161.36;-40.01;-76.18;5;1010.55;35.247;37.51667;126.76472;34.43;NaN;;0.37;10.242631;155.9;30 / 43;152008;2021-05-13 12:06:05:619
7.2786;6.1223;1.5884;7.2714;6.2929;1.9224;0.0023;-0.1996;-0.3288;-0.1597;-0.106;0.1463;5684;21.8;-31.21;22.48;159.13;-39.92;-75.19;5;1010.55;34.806;37.51667;126.76472;34.43;NaN;;0.37;10.242631;155.9;30 / 43;152508;2021-05-13 12:06:06:119
7.3686;6.1015;1.8988;7.382;6.1542;1.9501;0.0293;-0.1203;0.0069;0.1673;0.0443;-0.1618;5901;18.49;-32.54;17.27;163.3;-36.88;-75.19;5;1010.55;35.456;37.51667;126.76472;34.43;NaN;;0.37;10.242631;155.9;30 / 43;153008;2021-05-13 12:06:06:619
7.7022;6.0744;2.1072;7.5659;5.9151;1.9847;0.0703;0.1205;0.1081;0.1068;0.0379;-0.1439;5959;16.55;-31.95;22.95;155.36;-37.51;-75.15;5;1010.55;34.432;37.51667;126.76472;34.43;NaN;;0.37;10.242631;155.9;30 / 43;153508;2021-05-13 12:06:07:119
7.5099;6.1056;1.9432;7.4434;6.0843;1.9357;-0.03;0.0201;-0.0309;-0.1312;4.00E-04;0.1617;5773;17.56;-32.1;19.09;160.38;-38.35;-75.42;5;1010.55;34.983;37.51667;126.76472;34.43;NaN;;0.37;10.242631;155.9;29 / 43;154009;2021-05-13 12:06:07:620
7.4021;6.1049;1.8567;7.3787;6.163;1.9343;-0.0411;-0.072;-0.1303;-0.1067;-0.0471;0.1301;5807;18.95;-32.3;19.55;159.87;-38.94;-75.31;5;1010.55;35.356;37.51667;126.76472;34.43;NaN;;0.37;10.242631;155.9;29 / 43;154508;2021-05-13 12:06:08:119
7.3672;6.1326;1.8495;7.4154;6.1157;1.9445;0.0501;-0.0721;4.00E-04;0.0853;0.0175;-0.097;5906;20.16;-31;20.36;160.12;-38.58;-75.31;5;1010.55;33.195;37.51667;126.76472;34.43;NaN;;0.37;10.242631;155.9;27 / 43;155008;2021-05-13 12:06:08:619
7.5417;6.1045;1.9597;7.4678;6.0519;1.9434;0.0565;0.0013;0.0425;0.0725;0.0535;-0.1235;5906;18.63;-31.66;19.77;159.9;-37.59;-75.29;5;1010.55;33.695;37.51667;126.76472;34.43;NaN;;0.37;10.242631;155.9;27 / 43;155508;2021-05-13 12:06:09:119
7.5872;6.0761;2.0261;7.5095;5.9849;1.9898;0.0531;0.0318;0.0127;0.0823;-0.0047;-0.0857;5906;17.54;-33.05;21.19;158.6;-37.61;-75.16;5;1010.55;32.508;37.51667;126.76472;34.43;NaN;;0.37;10.242631;155.9;26 / 43;156008;2021-05-13 12:06:09:619
7.5284;6.0912;1.9651;7.4601;6.0584;1.9525;0.0059;0.0031;-0.0172;-0.0389;-0.0193;0.0876;5906;16.65;-32.65;16.23;163.86;-38.15;-75.33;5;1010.55;33.134;37.51667;126.76472;34.43;NaN;;0.37;10.242631;155.9;26 / 43;156508;2021-05-13 12:06:10:119
7.4798;6.1138;1.9142;7.4307;6.1063;1.9151;-0.036;-0.0088;-0.0315;-0.0915;0.0022;0.0731;5906;19.37;-30.5;20.62;157.86;-38.79;-75.44;5;1010.55;33.06;37.51667;126.76472;34.43;NaN;;0.37;10.242631;155.9;28 / 43;157008;2021-05-13 12:06:10:619
7.4052;6.1062;1.8745;7.3857;6.158;1.9239;-0.0013;-0.0815;-0.0755;-0.0246;0.0029;0.0062;5906;21.06;-30.89;21.6;158.31;-38.68;-75.51;5;1010.55;32.936;37.51667;126.76472;34.43;NaN;;0.37;10.242631;155.9;28 / 43;157511;2021-05-13 12:06:11:122
7.4107;6.1162;1.883;7.4765;6.031;1.9748;0.0436;0.0151;0.0059;0.0715;0.0137;-0.099;5906;19.47;-31.94;21.06;158.8;-37.95;-75.2;5;1010.55;32.121;37.51667;126.76472;34.43;NaN;;0.37;10.242631;155.9;28 / 43;158008;2021-05-13 12:06:11:619
7.5369;6.0936;1.9645;7.4967;6.013;1.9526;0.0404;0.0429;0.0444;0.038;0.0255;-0.0556;5906;18.66;-32.31;21.6;157.56;-37.82;-75.4;5;1010.55;32.83;37.51667;126.76472;34.43;NaN;;0.37;10.242631;155.9;28 / 43;158508;2021-05-13 12:06:12:119
7.5671;6.0847;1.9843;7.4869;6.0212;1.9651;0.0264;0.0359;-0.0284;-0.0046;-0.0079;-0.0153;5906;17.17;-32.3;22.26;156.23;-38.27;-75.53;5;1010.55;33.178;37.51667;126.76472;34.43;NaN;;0.37;10.242631;155.9;28 / 43;159008;2021-05-13 12:06:12:619
7.4603;6.1039;1.9035;7.4227;6.1147;1.9192;-0.01;-0.0404;-0.0441;-0.0341;-0.0076;0.054;5906;18.07;-31.85;19.37;160.33;-38.57;-75.5;5;1010.55;34.144;37.51667;126.76472;34.43;NaN;;0.37;10.242631;155.9;28 / 43;159508;2021-05-13 12:06:13:119
7.4356;6.1186;1.8899;7.4157;6.1273;1.9063;-0.0208;-0.0407;-0.0179;-0.0224;0.0197;0.0308;5906;17.21;-31.81;19.86;158.53;-38.43;-75.49;5;1010.54;34.642;37.51667;126.76472;34.43;NaN;;0.37;10.242631;155.9;29 / 43;160008;2021-05-13 12:06:13:619
7.4285;6.1056;1.8922;7.4573;6.0651;1.9425;0.0392;0.0021;-0.0202;0.0246;0.0204;-0.0696;5906;20.22;-31.33;21.21;158.9;-38.2;-75.4;5;1010.54;33.907;37.51667;126.76472;34.43;NaN;;0.37;10.242631;155.9;29 / 43;160508;2021-05-13 12:06:14:119
7.5185;6.0929;1.9713;7.4739;6.0442;1.944;0.0464;0.0057;0.0224;0.043;-0.0111;-0.0407;5906;19;-30.92;22.23;157.16;-38.02;-75.39;5;1010.54;33.762;37.51667;126.76472;34.43;NaN;;0.37;10.242631;155.9;29 / 43;161008;2021-05-13 12:06:14:619
7.564;6.0953;1.9333;7.4864;6.0292;1.9422;0.0295;0.0336;-0.0043;-0.0098;0.02;-0.0242;5906;18.86;-32.17;21.87;157.5;-38.16;-75.5;5;1010.55;33.906;37.51667;126.76472;34.43;NaN;;0.37;10.242631;155.9;29 / 43;161508;2021-05-13 12:06:15:119
7.5229;6.0819;1.923;7.4688;6.0482;1.951;0.0221;-0.0012;-0.0251;-0.0201;-0.0155;0.0091;5906;17.78;-32.45;19.11;160.34;-38.36;-75.49;5;1010.55;32.733;37.51667;126.76472;34.43;NaN;;0.37;10.242631;155.9;30 / 43;162008;2021-05-13 12:06:15:619
7.5167;6.0895;1.9227;7.4566;6.0672;1.9386;-0.0143;-0.0138;0.0116;0.0203;0.0309;0.017;5906;18.18;-31.98;20.09;159.2;-38.22;-75.43;5;1010.55;33.017;37.51667;126.76472;34.43;NaN;;0.37;10.242631;155.9;30 / 43;162508;2021-05-13 12:06:16:119
7.4856;6.0792;1.9771;7.46;6.0697;1.9178;0.0523;-0.0288;-0.0358;-0.0089;-0.0273;-0.0102;5906;18.03;-30.99;20.45;158.77;-38.2;-75.5;5;1010.55;33.471;37.51667;126.76472;34.43;NaN;;0.37;10.242631;155.9;29 / 43;163008;2021-05-13 12:06:16:619
7.5099;6.0741;1.8532;7.4869;6.0295;1.9394;0.0103;0.0048;0.0564;0.0387;0.0434;-0.0325;5906;17.95;-31.15;19.6;158.78;-37.94;-75.48;5;1010.55;33.3;37.51667;126.76472;34.43;NaN;;0.37;10.242631;155.9;29 / 43;163509;2021-05-13 12:06:17:120
7.4647;6.0895;1.9097;7.4983;6.0129;1.9469;0.018;0.0291;-0.0176;-0.0253;0.0626;0.0365;5906;17.47;-31.55;22.63;155.19;-37.82;-75.45;5;1010.55;32.942;37.51667;126.76472;34.43;NaN;;0.37;10.242631;155.9;29 / 43;164008;2021-05-13 12:06:17:619
6.5298;6.2127;1.5661;6.8982;6.7407;1.7744;0.1456;-0.6269;-0.2802;-0.1392;-0.0706;0.1953;4943;24.29;-25.68;23.1;157.22;-43.42;-75.57;5;1010.55;33.469;37.51667;126.76472;34.43;NaN;;0.37;10.242631;155.9;29 / 43;164509;2021-05-13 12:06:18:120
7.7282;5.7284;2.2088;8.5258;4.4526;1.912;-0.5348;1.5907;0.4271;-0.0072;0.2557;0.049;5551;3.14;-33.65;20.18;150.59;-30.54;-76.19;5;1010.55;34.588;37.51667;126.76472;34.43;NaN;;0.37;10.242631;155.9;29 / 43;165009;2021-05-13 12:06:18:620
3.4479;5.6251;0.3595;6.3265;7.4734;0.5423;0.4679;-1.7416;0.9296;-0.1255;0.6608;0.3297;3829;30.48;-5.42;34.7;137.72;-41.86;-75.45;5;1010.55;48.836;37.51667;126.76472;34.43;NaN;;0.37;10.242631;155.9;29 / 43;165508;2021-05-13 12:06:19:119
0.4477;5.3643;0.6131;9.1339;3.0891;1.7888;-1.1238;2.5369;0.607;0.1081;-1.6936;-2.9807;7439;21.33;-22.26;35.58;133.36;-18.36;-78.92;5;1010.57;57.781;37.51667;126.764725;34.85;NaN;;0.32;9.935046;142.6;29 / 43;166008;2021-05-13 12:06:19:619
12.5982;5.5693;3.4031;8.5662;2.5953;4.007;4.0005;2.7176;-0.9306;-0.6354;-2.3352;1.5396;4775;-22.59;-11.24;27.17;103.36;-15.35;-64.93;5;1010.58;56.828;37.51667;126.764725;34.85;NaN;;0.32;9.935046;142.6;29 / 43;166508;2021-05-13 12:06:20:119
4.4536;6.8618;0.9529;7.1665;6.6708;0.5584;-3.5655;-0.7225;0.6965;-0.3075;-2.8215;3.8787;7248;14.64;-26.32;37.69;150.13;-55.08;-57.67;5;1010.59;63.355;37.516663;126.76473;35.01;NaN;;0.96;9.937288;138.1;28 / 43;167008;2021-05-13 12:06:20:619
1.4073;2.9548;-0.7975;2.6915;9.4273;0.2294;5.1668;-7.0129;0.5887;3.7323;3.3655;-0.5873;5970;14.95;23.71;30.39;70.46;-31.07;-72.94;5;1010.59;55.517;37.516663;126.76473;35.01;NaN;;0.96;9.937288;138.1;28 / 43;167508;2021-05-13 12:06:21:119
9.3315;2.3077;3.1222;8.7582;-0.1091;4.4105;1.6713;3.3191;-1.0461;-2.4975;-5.6236;-3.0117;7905;-25.78;4.32;21.45;80.49;-16.65;-49.03;5;1010.58;53.012;37.516655;126.76475;35.63;NaN;;1.14;10.099755;138.3;30 / 43;168008;2021-05-13 12:06:21:619
7.0418;6.0758;1.7957;3.8447;8.2559;3.6372;4.8314;-2.3626;-1.4958;0.2987;3.2932;2.5965;11488;3.73;-24.76;36.8;147.13;-57.34;-46.59;5;1010.58;49.907;37.516655;126.76475;35.63;NaN;;1.14;10.099755;138.3;30 / 43;168508;2021-05-13 12:06:22:119
7.9565;5.0088;0.612;9.4177;2.6415;0.7072;-0.6391;2.5477;2.1335;1.6622;1.2832;-1.3109;7383;-16.18;3.28;28.34;77.19;-15.63;-85.71;5;1010.57;47.708;37.51665;126.76477;35.74;NaN;;1.66;10.146963;123;30 / 43;169008;2021-05-13 12:06:22:619
12.0661;5.351;3.8678;9.4889;2.3661;0.7292;1.8511;2.4409;2.3031;0.6319;-3.7515;-0.5018;8169;-10.7;21.55;33.39;55.28;-13.96;-85.61;5;1010.57;50.996;37.51665;126.76477;35.74;NaN;;1.66;10.146963;123;30 / 43;169508;2021-05-13 12:06:23:119
12.423;4.8028;1.9973;7.2313;5.3314;3.9313;1.5238;-0.7941;-2.9974;-1.2356;-4.3817;2.9731;16110;-24.8;24.98;-2.46;36.4;-63.37;-36.08;5;1010.58;46.345;37.516647;126.76478;34.89;NaN;;1.54;10.130506;127.3;30 / 43;170008;2021-05-13 12:06:23:619
6.9781;5.903;0.1066;3.9761;8.4727;2.9282;6.0342;-2.0289;-2.4614;-0.0463;1.7468;-2.2972;11781;-13.26;8.52;-17.72;343.43;-59.77;-53.63;5;1010.58;47.554;37.516647;126.76478;34.89;NaN;;1.54;10.130506;127.3;30 / 43;170507;2021-05-13 12:06:24:118
9.6494;6.4772;1.1852;7.4958;5.8853;2.3121;2.5236;0.5984;-0.6831;-1.135;2.9533;-2.4765;8836;-17.49;13.08;23.84;44.75;-27.57;-99.37;5;1010.57;45.731;37.516644;126.76479;34.77;NaN;;1.45;10.116197;130.7;30 / 43;171007;2021-05-13 12:06:24:618
7.4052;6.1381;2.6502;7.84;5.8208;-0.9075;0.0478;-0.5641;2.3291;-1.3756;-3.5403;1.4324;9971;8.58;-26.37;35.86;126.51;-41.83;-87.66;5;1010.57;47.383;37.516644;126.76479;34.77;NaN;;1.45;10.116197;130.7;30 / 43;171508;2021-05-13 12:06:25:119
5.2955;5.713;1.5586;6.4258;7.1217;2.0397;1.2583;-1.9877;0.2853;1.839;-0.0552;0.8861;10695;3.54;-6.9;42.4;113.41;-46.57;-72.39;5;1010.58;51.14;37.51664;126.76482;34.05;NaN;;2.13;10.153639;114.4;31 / 43;172008;2021-05-13 12:06:25:619
11.161;5.6525;3.5332;8.4539;4.481;2.1501;0.0987;1.2228;0.3422;-0.4023;-2.729;-0.5178;8922;-12.64;-12.22;34.04;103.6;-27.19;-75.73;5;1010.58;50.234;37.51664;126.76482;34.05;NaN;;2.13;10.153639;114.4;31 / 43;172508;2021-05-13 12:06:26:119
6.9634;5.2408;2.0004;6.1865;6.5437;3.883;-1.0755;-0.3937;-2.612;-0.8126;-1.2579;1.4126;10052;-1.82;-16.89;32.67;129.69;-49.48;-56.29;5;1010.6;50.517;37.516632;126.76485;34.96;NaN;;2.49;10.177977;115;31 / 43;173007;2021-05-13 12:06:26:618
6.8474;6.8718;1.997;6.2992;6.755;3.2955;-1.0724;-0.0382;-2.6575;-0.6184;0.4376;-0.4779;9772;-4.61;-19.31;27.96;125.94;-43.54;-62.38;5;1010.61;50.391;37.516632;126.76485;34.96;NaN;;2.49;10.177977;115;31 / 43;173508;2021-05-13 12:06:27:119
7.9986;5.5981;2.2232;7.6482;5.2917;3.1102;2.1316;0.6463;-0.4265;0.0748;0.0302;-1.1084;8758;-1.73;-28.8;25.64;134.93;-37.35;-76.11;5;1010.6;52.578;37.516624;126.76488;34.22;NaN;;2.57;10.207466;122.9;31 / 43;174008;2021-05-13 12:06:27:619
7.9592;6.0296;1.8881;7.4002;5.9012;2.5656;0.1741;0.0494;-0.6245;-0.5353;-0.1235;1.0564;8632;-2.7;-28.23;27.04;134.44;-37;-70.88;5;1010.6;52.529;37.516624;126.76488;34.22;NaN;;2.57;10.207466;122.9;31 / 43;174508;2021-05-13 12:06:28:119
6.7687;6.0522;1.8673;7.2178;6.2561;2.2213;-0.6267;-0.4624;-0.1805;-0.2563;0.4484;1.0713;8632;7.42;-30.44;26.43;144.55;-44.67;-71.95;5;1010.6;52.414;37.516613;126.764915;35.02;NaN;;2.38;10.240168;132.7;31 / 43;175008;2021-05-13 12:06:28:619
6.7991;6.6733;1.1729;6.1998;7.2444;2.2917;-0.1289;-1.2282;-1.2789;-0.7596;-0.6864;0.7268;8892;15.4;-22.78;28.28;145.44;-45.02;-72.63;5;1010.59;50.316;37.516613;126.764915;35.02;NaN;;2.38;10.240168;132.7;31 / 43;175508;2021-05-13 12:06:29:119
10.7233;3.9493;3.3186;8.493;4.8656;0.6049;4.04;-0.6124;3.4052;1.235;1.8769;-3.9015;8404;20.76;-23.75;26.28;142.75;-29.75;-85.93;5;1010.58;49.145;37.516598;126.76494;34.85;NaN;;2.56;10.119291;137.9;32 / 43;176008;2021-05-13 12:06:29:619
9.7531;4.9951;2.9257;9.1921;2.672;2.1299;1.3197;2.4187;0.9582;-0.6412;-1.9582;-1.0603;8905;-6.82;-29.09;22.5;138.86;-15.81;-76.95;5;1010.58;48.984;37.516598;126.76494;34.85;NaN;;2.56;10.119291;137.9;32 / 43;176508;2021-05-13 12:06:30:119
7.8987;6.1774;2.2991;7.6589;5.8475;1.8215;-0.1828;0.4162;0.5219;-0.1417;-2.6242;1.7853;11173;12.94;-34.52;15.58;166.88;-43.51;-64.68;5;1010.56;48.851;37.516575;126.76495;35.73;NaN;;2.3;10.05404;153.6;32 / 43;177008;2021-05-13 12:06:30:619
4.251;5.838;0.0375;5.6875;7.7531;1.9266;-2.7461;-0.9956;-2.5949;-0.0498;0.3908;1.1157;8845;19.05;-5.72;35.39;133.61;-50.21;-71.91;5;1010.57;50.385;37.516575;126.76495;35.73;NaN;;2.3;10.05404;153.6;32 / 43;177510;2021-05-13 12:06:31:121
8.3822;5.4786;1.9261;8.1143;5.2276;1.7323;-0.2338;-0.8323;-0.6436;1.2411;0.4654;-1.2201;7398;4.19;-13.97;34.36;118.66;-32.21;-77.95;5;1010.57;48.185;37.516556;126.76496;35.3;NaN;;2.16;10.009845;170.9;32 / 43;178008;2021-05-13 12:06:31:619
9.2846;5.7753;2.3963;8.6359;3.6763;2.842;0.5987;2.4178;-0.7287;-1.5115;-1.7558;1.1585;8479;-22.85;-25.06;25.3;120.08;-22.02;-71.78;5;1010.58;51.777;37.516556;126.76496;35.3;NaN;;2.16;10.009845;170.9;32 / 43;178508;2021-05-13 12:06:32:119
4.2784;6.0241;0.2982;5.0274;8.2484;1.691;-0.4292;-2.3316;-0.951;0.2576;2.3683;1.5443;8307;5.35;-5.17;41.68;102.27;-43.58;-86.09;5;1010.59;49.011;37.516537;126.76497;35.4;NaN;;2.26;9.998668;158.8;32 / 43;179009;2021-05-13 12:06:32:620
6.7522;6.3694;0.6692;5.6552;7.9669;0.8469;1.2906;-1.8953;0.1453;0.8313;2.2417;-2.271;7629;-3.99;9.72;36.7;74.26;-15.24;-88.57;5;1010.59;48.449;37.516537;126.76497;35.4;NaN;;2.26;9.998668;158.8;32 / 43;179508;2021-05-13 12:06:33:119
9.1183;6.5114;2.1462;9.3213;3.0159;0.4339;1.9317;1.7323;3.5133;0.0982;0.5757;-1.6845;7519;-17.48;-9.83;40.17;96.81;-17.91;-87.34;5;1010.59;47.244;37.51652;126.76498;35.82;NaN;;1.82;10.17512;153.6;30 / 43;180008;2021-05-13 12:06:33:619
8.1166;6.1172;2.3857;7.8701;5.5471;1.8607;-0.4605;0.1174;0.3123;-0.8518;-0.2259;2.1378;8088;-26.51;-14.27;34.16;91.61;-34.45;-76.7;5;1010.6;48.354;37.51652;126.76498;35.82;NaN;;1.82;10.17512;153.6;30 / 43;180508;2021-05-13 12:06:34:119
5.4334;6.4444;1.2044;6.1461;7.4948;1.4912;-0.5199;-1.4623;0.1296;-0.4186;0.9291;1.8063;8061;-4.63;-8.41;47.77;104.96;-49.18;-72.37;5;1010.61;47.961;37.516514;126.76499;36.34;NaN;;1.78;10.680453;141;29 / 43;181009;2021-05-13 12:06:34:620
6.9333;5.9642;2.6092;7.4836;6.139;1.5744;1.0533;-0.6784;1.587;0.6784;0.8112;-1.9839;7969;-8.99;-14.4;45.88;103.59;-38.76;-78.12;5;1010.64;49.626;37.516514;126.76499;36.34;NaN;;1.78;10.680453;141;29 / 43;181508;2021-05-13 12:06:35:119
9.1026;5.1104;3.1858;8.7612;4.0951;1.6252;1.9003;1.254;1.9845;0.3851;-0.1827;-1.6428;7592;-23.24;-14.03;43.57;100.77;-31.19;-68.16;5;1010.64;50.142;37.5165;126.76502;37.35;NaN;;3.07;10.566743;118.7;29 / 43;182008;2021-05-13 12:06:35:619
9.4475;5.6135;3.0438;7.9122;5.3364;2.256;1.2643;0.5155;0.1927;-0.2992;-1.4513;1.407;7970;-23.48;-12.29;44.28;95.4;-32.97;-74.09;5;1010.64;48.9;37.5165;126.76502;37.35;NaN;;3.07;10.566743;118.7;29 / 43;182508;2021-05-13 12:06:36:119
7.1732;5.8222;2.3594;5.4238;7.5604;3.0973;-0.2571;-1.7125;-2.3735;-0.4155;-0.6511;0.0902;8756;-14.84;-16.26;43.69;110.39;-50.44;-60.27;5;1010.64;47.897;37.516487;126.76505;38.49;NaN;;3.15;10.626837;116.3;29 / 43;183008;2021-05-13 12:06:36:619
6.408;6.1299;1.9207;6.3083;6.6403;3.5046;1.5477;-1.2247;-2.0087;0.295;-1.1553;-1.4106;8534;-13.99;-11.55;41.1;108.21;-42.62;-60.95;5;1010.64;50.106;37.516487;126.76505;38.49;NaN;;3.15;10.626837;116.3;29 / 43;183508;2021-05-13 12:06:37:119
9.9824;5.905;2.8956;7.8833;4.8352;3.2627;0.8034;0.8748;-0.9503;0.1567;-1.1179;-1.5028;8184;-17.48;-19.6;36.17;110.93;-31.33;-70.06;5;1010.65;50.84;37.51648;126.76509;38.48;NaN;;2.87;10.658608;119;30 / 43;184010;2021-05-13 12:06:37:621
7.0801;5.5864;1.6876;7.1509;6.0685;2.8651;0.9533;-0.3186;-0.9485;-0.4755;-0.0202;1.2618;7977;-12.95;-12.68;39.98;105.9;-38.23;-68.17;5;1010.65;50.138;37.51648;126.76509;38.48;NaN;;2.87;10.658608;119;30 / 43;184507;2021-05-13 12:06:38:118
6.2879;6.3212;1.136;6.114;7.2286;2.5566;-0.0781;-1.0102;-1.3657;-0.5986;0.0168;1.0734;7837;-0.95;-8.22;36.88;109.86;-45.19;-72.49;5;1010.66;49.643;37.51647;126.76512;38.62;NaN;;3.03;10.600229;115.9;31 / 43;185008;2021-05-13 12:06:38:619
6.0168;6.2366;1.4789;7.3717;6.0415;2.3084;-0.5302;-0.7323;-0.0282;0.3305;1.0391;-1.146;7882;0.3;-16.69;40.55;118.15;-38.03;-72.61;5;1010.66;48.34;37.51647;126.76512;38.62;NaN;;3.03;10.600229;115.9;31 / 43;185508;2021-05-13 12:06:39:119
8.3586;5.7664;2.4039;7.9187;5.2605;2.4066;1.1189;0.5158;0.2443;-0.013;0.2992;-0.8926;7452;-6.99;-19.7;33.11;118.74;-32.44;-73.1;5;1010.66;50.27;37.516464;126.76515;38.71;NaN;;2.44;10.915744;114.4;29 / 43;186008;2021-05-13 12:06:39:619
8.7593;5.8742;2.5719;7.995;5.2878;2.0709;-0.1499;0.483;0.1815;0.152;0.1154;-0.4339;7242;-8.9;-15.62;36.36;110.19;-32.63;-75.48;5;1010.67;51.171;37.516464;126.76515;38.71;NaN;;2.44;10.915744;114.4;29 / 43;186508;2021-05-13 12:06:40:119
6.1657;6.367;1.5682;7.0039;6.5136;2.1656;-0.2884;-0.2119;-0.3907;-0.5613;-0.3014;0.4352;7410;-3.19;-10.47;42.15;109.33;-44.27;-71.8;5;1010.66;49.016;37.516457;126.765175;39.36;NaN;;2.45;11.432981;112.7;29 / 43;187008;2021-05-13 12:06:40:619
7.2142;5.8431;2.292;7.1999;6.4445;1.6732;1.1656;-0.9751;1.2311;0.6593;-0.2348;-0.9124;7149;-0.54;-11.71;42.81;109.48;-31.85;-76.73;5;1010.67;48.73;37.516457;126.765175;39.36;NaN;;2.45;11.432981;112.7;29 / 43;187508;2021-05-13 12:06:41:119
8.8695;5.7856;2.7971;7.9197;5.4556;1.9199;0.5608;0.5924;0.8186;0.0261;0.4981;-1.0585;7163;-7.04;-15.4;39.26;108.91;-32.65;-77.33;5;1010.66;47.836;37.51645;126.765205;38.39;NaN;;2.94;11.123889;115.8;28 / 43;188008;2021-05-13 12:06:41:619
8.4356;6.0867;1.8423;7.7671;5.7604;1.6312;-0.5674;0.1981;0.6916;0.2281;0.4429;0.4681;7003;-12.08;-11.65;35.78;100.75;-35.97;-78.14;5;1010.65;49.19;37.51645;126.765205;38.39;NaN;;2.94;11.123889;115.8;28 / 43;188508;2021-05-13 12:06:42:119
7.7139;5.8164;2.0671;7.2494;6.2226;2.2127;-0.3917;-0.4393;-0.2926;0.0037;-0.1587;0.329;7183;-7.55;-13.26;38.63;106.71;-42.47;-73.45;5;1010.65;49.217;37.51644;126.76525;38.1;NaN;;2.92;11.092273;116;27 / 43;189008;2021-05-13 12:06:42:619
7.8227;6.0094;2.3108;7.4782;5.9584;2.1783;-0.5025;0.1281;-0.0745;-0.1081;-0.0741;0.7604;7183;-7.61;-15.36;36.76;110.32;-43;-71.22;5;1010.65;46.501;37.51644;126.76525;38.1;NaN;;2.92;11.092273;116;27 / 43;189508;2021-05-13 12:06:43:119
4.005;6.1583;0.2999;5.6651;7.7889;1.8463;1.858;-1.9868;-0.4317;-0.1987;0.344;-0.1993;6847;1.51;-4.36;44.06;109.72;-52.58;-71.95;5;1010.65;49.514;37.516434;126.76528;37.13;NaN;;2.55;11.159872;114.9;27 / 43;190008;2021-05-13 12:06:43:619
7.1489;5.6727;1.5925;6.2987;7.1561;2.2994;1.9203;-1.7122;-0.1711;1.1334;0.9705;-2.103;7012;3.29;-1.62;43.57;109.7;-46.86;-69.94;5;1010.64;48.181;37.516434;126.76528;37.13;NaN;;2.55;11.159872;114.9;27 / 43;190508;2021-05-13 12:06:44:119
7.2765;6.135;1.9169;8.0924;4.9539;2.4783;0.963;0.5389;0.1368;-0.4271;0.4666;-1.9229;7206;-8.88;-17.66;35.15;114.85;-29.5;-72.22;5;1010.63;45.7;37.516422;126.76531;35.64;NaN;;2.27;11.145542;118.2;26 / 43;191008;2021-05-13 12:06:44:619
8.658;6.4461;1.9395;6.5922;6.8075;2.5242;0.8091;-0.127;-0.9342;-0.4087;-0.0141;-0.3583;6802;3.94;-20.41;33.26;130.59;-43.96;-69.05;5;1010.63;47.473;37.516422;126.76531;35.64;NaN;;2.27;11.145542;118.2;26 / 43;191508;2021-05-13 12:06:45:119
27.1761;10.1372;7.3745;7.8992;5.7969;0.4098;3.2732;0.7851;3.4068;1.9252;2.2744;-5.9876;6811;13.12;-43.69;26.41;152.65;-26.67;-82.59;5;1010.63;48.178;37.51642;126.76534;34.2;NaN;;2.19;11.204333;113.5;26 / 43;192008;2021-05-13 12:06:45:619
7.1615;4.8473;1.6305;9.1297;2.8552;2.1601;6.525;-3.2024;1.9458;0.3442;-0.0276;-0.3829;5721;-10.58;-25.9;34.87;123.37;-16.93;-76.69;5;1010.61;64.396;37.51642;126.76534;34.2;NaN;;2.19;11.204333;113.5;26 / 43;192512;2021-05-13 12:06:46:123
0.6725;5.8164;-0.8653;3.3718;9.1762;0.7732;0.475;-4.9268;-0.5724;2.0513;0.6864;-0.0402;4232;17.81;4.61;46.89;96.79;-26.9;-85.3;5;1010.6;56.92;37.516415;126.76536;34.83;NaN;;1.65;11.335842;110.4;26 / 43;193010;2021-05-13 12:06:46:621
8.786;4.5697;2.781;9.0328;3.7042;0.9262;2.3352;0.6093;1.9023;-1.2213;-0.4385;-5.1018;5148;-3.5;-17.22;41.59;112.71;-5.85;-76.75;5;1010.61;51.626;37.516415;126.76536;34.83;NaN;;1.65;11.335842;110.4;26 / 43;193508;2021-05-13 12:06:47:119
13.8559;4.7603;3.6423;7.7632;5.1277;3.1;-1.2392;0.0817;-1.7326;0.3207;-1.6354;4.9422;6486;-19.07;-4.22;30.07;90;-31.53;-68.23;5;1010.6;52.696;37.516407;126.76538;35.04;NaN;;1.77;11.113493;117.6;27 / 43;194008;2021-05-13 12:06:47:619
-0.6272;4.8322;-2.5596;2.8868;9.2765;-1.3358;0.9553;-3.9773;-1.9388;-0.9605;2.6028;1.934;3050;-19.04;13.5;-3.75;328.49;-71.07;-114.83;5;1010.61;61.176;37.516407;126.76538;35.04;NaN;;1.77;11.113493;117.6;27 / 43;194508;2021-05-13 12:06:48:119
8.0674;5.6463;1.4878;5.8138;7.3096;2.9899;3.4473;-0.7482;-1.2966;-1.615;1.464;-2.7681;5158;-5.92;-10.49;32.74;102.57;-22.09;-88.23;5;1010.59;49.989;37.516403;126.76541;35.04;NaN;;1.85;11.116828;118.9;27 / 43;195008;2021-05-13 12:06:48:619
10.4166;4.992;2.7084;8.8039;4.3033;-0.3786;1.1626;1.869;2.9384;1.1935;1.7354;0.6119;5679;-4.75;-19.45;41.2;109.1;-26.03;-92.46;5;1010.59;46.703;37.516403;126.76541;35.04;NaN;;1.85;11.116828;118.9;27 / 43;195508;2021-05-13 12:06:49:119
8.2631;5.569;2.2762;7.4673;6.3175;0.7057;2.2951;-0.158;2.08;-0.5432;-0.7645;2.2828;6008;-0.06;-22.49;43.26;125.24;-55.77;-64.83;5;1010.59;50.66;37.516396;126.765434;34.07;NaN;;1.71;11.152723;128.4;27 / 43;196008;2021-05-13 12:06:49:619
8.1697;5.6768;2.1318;7.0513;6.6851;1.3263;5.2376;-1.0151;1.6831;0.779;-1.7648;-0.6077;7584;5.76;-16.41;37.29;120.04;-42.98;-79.35;5;1010.58;52.64;37.516396;126.765434;34.07;NaN;;1.71;11.152723;128.4;27 / 43;196508;2021-05-13 12:06:50:119
10.0002;6.4255;1.6554;7.4988;5.5111;3.0928;1.6821;0.2679;-1.3602;-0.3845;-1.3495;-1.3493;8217;-17.38;-24.79;17.66;125.37;-33.38;-64.27;5;1010.59;51.403;37.516384;126.76546;34.28;NaN;;1.6;11.121713;123.7;25 / 43;197007;2021-05-13 12:06:50:618
9.5704;5.0084;2.1167;8.1294;5.0214;2.2062;0.9018;0.7646;0.24;1.0412;1.827;-1.6891;8655;-2.19;-34.5;21.87;145.81;-30.8;-74.82;5;1010.59;49.015;37.516384;126.76546;34.28;NaN;;1.6;11.121713;123.7;25 / 43;197508;2021-05-13 12:06:51:119
11.4737;5.8831;2.3139;8.774;3.1373;3.0569;2.4816;3.2443;-1.1293;-2.5485;0.1201;1.3898;7837;-17.63;-24.99;14.82;107.83;-48.08;-77.98;5;1010.59;52.475;37.516376;126.76548;35.13;NaN;;1.75;11.027988;123.8;28 / 43;198008;2021-05-13 12:06:51:619
-0.6915;5.3318;-0.3574;3.0361;9.0478;2.256;6.4717;-3.4447;-0.0746;-0.1335;1.0489;-2.7493;10232;58.96;8.61;29.49;152.85;-27.23;-73.55;5;1010.59;54.984;37.516376;126.76548;35.13;NaN;;1.75;11.027988;123.8;28 / 43;198508;2021-05-13 12:06:52:119
19.2772;3.3087;3.5136;8.8256;2.8695;3.1695;6.2049;0.586;0.0661;2.755;-1.4196;-7.886;8807;-14.05;-24.97;13.19;147.86;2.01;-76.4;5;1010.6;54.149;37.51636;126.765495;35.38;NaN;;1.84;10.893467;133.8;28 / 43;199008;2021-05-13 12:06:52:619
5.7646;5.79;1.1893;7.7139;5.7371;1.9372;-4.4284;0.1479;-1.9349;-0.4393;-3.9229;4.403;7646;-5.04;-34.45;3.75;168.61;-35.8;-75.9;5;1010.59;56.27;37.51636;126.765495;35.38;NaN;;1.84;10.893467;133.8;28 / 43;199508;2021-05-13 12:06:53:119
-4.2262;4.1365;-0.7435;2.1687;9.4374;1.5503;-4.0512;-3.6707;-2.3527;-0.9154;-1.8999;3.6211;10437;38.98;-6.46;9.53;201.07;-74.23;-54.44;5;1010.59;53.844;37.516335;126.7655;38.79;NaN;;2.08;10.864533;160.4;27 / 43;200009;2021-05-13 12:06:53:620
5.3998;4.1149;0.2182;5.9142;7.8188;0.2427;7.9296;-1.8638;1.0821;2.2419;-1.5554;-5.4659;8659;42.55;15.57;4.65;172.56;-52.87;-87.65;5;1010.6;52.498;37.516335;126.7655;38.79;NaN;;2.08;10.864533;160.4;27 / 43;200508;2021-05-13 12:06:54:119
15.2613;2.9062;4.2621;9.7607;-0.3112;0.8956;4.0644;2.8469;2.7292;0.1007;-1.2649;-2.184;7531;-12.74;-28.78;-1.81;171.98;-37.01;-71.79;5;1010.61;55.672;37.516308;126.765495;37.9;NaN;;2.63;10.958629;189.6;26 / 43;201008;2021-05-13 12:06:54:619
13.9472;4.927;1.5966;7.5479;5.3037;3.3273;-2.0285;-1.7223;-3.3988;-2.1899;-2.1845;5.147;8416;9.2;-23.82;17.17;149.34;-69.01;-70.27;5;1010.61;55.843;37.516308;126.765495;37.9;NaN;;2.63;10.958629;189.6;26 / 43;201508;2021-05-13 12:06:55:119
3.9632;5.8691;0.265;3.517;8.8318;2.4084;1.1905;-3.8156;-2.5801;-1.0684;-0.183;-0.4893;8906;42.06;-0.82;20.27;172.57;-54.96;-70.72;5;1010.59;53.498;37.516277;126.76548;37.56;NaN;;2.5;11.212185;196.9;24 / 43;202008;2021-05-13 12:06:55:619
9.8072;2.202;0.9515;7.7841;5.1591;2.9936;8.5193;-0.4023;-0.5466;1.698;3.8491;-4.315;10714;-1.19;-31.59;4.62;171.16;-11.74;-97.79;5;1010.6;51.617;37.516277;126.76548;37.56;NaN;;2.5;11.212185;196.9;24 / 43;202508;2021-05-13 12:06:56:119
11.291;5.5176;2.781;9.5188;2.3577;-0.0621;-0.4328;2.7657;2.1946;-0.2715;-0.3376;-0.3638;7911;-4.38;-21.49;9.32;148.92;-34.68;-85.4;5;1010.58;50.99;37.516247;126.76546;37.62;NaN;;2.65;11.416641;206.8;24 / 43;203008;2021-05-13 12:06:56:619
9.351;6.5385;1.9039;7.2877;6.4262;1.328;4.5598;-0.6276;0.7932;-0.5382;-2.6674;0.8881;10645;18.36;-26.59;7.66;171.98;-40.94;-79.67;5;1010.58;50.253;37.516247;126.76546;37.62;NaN;;2.65;11.416641;206.8;24 / 43;203508;2021-05-13 12:06:57:119
8.4667;5.6234;2.0801;7.4708;5.2655;3.5541;0.3407;-0.0651;-2.1909;0.2792;-0.33;-1.5564;12472;17.09;-29.18;-2.19;188.85;-26.86;-79.11;5;1010.57;53.827;37.516216;126.76544;37.21;NaN;;2.53;11.674341;209.7;22 / 43;204008;2021-05-13 12:06:57:619
10.5392;4.0417;2.0555;8.0509;4.9112;2.6895;4.1618;1.1244;-0.4428;0.7931;0.1974;-3.1727;11696;16;-30.92;3.18;179.18;-24.34;-81.14;5;1010.56;53.451;37.516216;126.76544;37.21;NaN;;2.53;11.674341;209.7;22 / 43;204508;2021-05-13 12:06:58:119
5.6657;4.2313;1.1623;7.6617;5.9197;1.5578;-3.5169;0.4172;-1.1272;-1.0676;1.6999;1.6586;11100;6.72;-35.09;-2.8;187.79;-37.13;-78.51;5;1010.56;58.557;37.51618;126.76542;37.7;NaN;;3.05;10.722193;205.6;21 / 43;205008;2021-05-13 12:06:58:619
11.6192;6.1856;2.3621;6.2981;7.1292;2.3831;-4.8323;0.5852;-2.089;-0.1446;0.1232;1.3813;11459;20.58;-30.49;10.13;177.06;-46.63;-69.27;5;1010.57;59.005;37.51618;126.76542;37.7;NaN;;3.05;10.722193;205.6;21 / 43;205507;2021-05-13 12:06:59:118
10.9549;6.8759;2.3946;6.7058;7.0481;1.2355;1.5725;1.1422;0.547;0.078;0.0746;-1.1454;9369;22.3;-26.01;4.82;174.67;-32.53;-85.27;5;1010.57;57.259;37.51614;126.76541;38.05;NaN;;3.06;10.385332;202.8;22 / 43;206008;2021-05-13 12:06:59:619
11.7759;2.6704;2.7461;8.9444;3.2683;2.3422;0.8807;1.2613;-0.3465;0.7471;-0.4375;-1.7101;9864;0.38;-34.08;2.13;176.56;-19.47;-75.33;5;1010.54;57.626;37.51614;126.76541;38.05;NaN;;3.06;10.385332;202.8;22 / 43;206508;2021-05-13 12:07:00:119
9.9355;4.9776;1.9542;7.9512;4.6392;3.3802;2.3286;0.3702;-1.9892;-2.0925;-2.4717;2.6146;9090;2.95;-29.33;4.49;170.42;-61.25;-73.05;5;1010.53;54.082;37.516113;126.76538;37.76;NaN;;2.66;10.205155;211.3;24 / 43;207008;2021-05-13 12:07:00:619
-0.2973;5.556;-0.9857;3.8371;8.8079;1.9666;5.856;-4.5335;-0.3283;1.1819;2.0272;-1.1295;9800;46.27;9.53;18.89;185.79;-63.92;-62.86;5;1010.51;57.207;37.516113;126.76538;37.76;NaN;;2.66;10.205155;211.3;24 / 43;207508;2021-05-13 12:07:01:119
5.8153;6.4916;0.4906;8.1171;5.3182;1.4141;7.9938;1.3816;3.6075;1.0378;1.6025;-4.6085;7042;12.99;-26.92;15.64;153.2;-14.14;-85.68;5;1010.49;54.549;37.516087;126.765366;38.79;NaN;;2.43;10.171905;215.9;25 / 43;208008;2021-05-13 12:07:01:619
9.7976;5.5998;2.2971;6.3893;7.0996;2.2232;-0.0999;-0.968;-1.0849;-1.2504;-2.7412;3.6404;9055;21.35;-32.99;3.76;189.73;-62.27;-63.59;5;1010.49;55.596;37.516087;126.765366;38.79;NaN;;2.43;10.171905;215.9;25 / 43;208508;2021-05-13 12:07:02:119
7.821;5.9964;-0.2377;5.9461;7.6774;1.3683;2.0225;-0.0533;-1.8837;-2.3663;0.205;4.1855;6236;37.83;0.4;24.62;146.86;-73;-88.64;5;1010.48;54.863;37.516068;126.76535;38.38;NaN;;2.09;10.217209;204.3;26 / 43;209011;2021-05-13 12:07:02:622
6.8669;7.69;0.4094;6.0352;7.4183;2.1715;-3.8757;0.1666;-2.9253;-2.8836;0.3654;-0.2545;6874;35.5;-24.04;6.58;187.07;-49.15;-70.21;5;1010.45;52.942;37.516068;126.76535;38.38;NaN;;2.09;10.217209;204.3;26 / 43;209509;2021-05-13 12:07:03:120
7.6978;5.7295;0.5087;4.433;8.6914;0.989;4.8492;-1.9781;0.4823;0.2049;3.0837;-0.1559;8072;68.6;-10.75;6.3;170.55;-56.17;-93.74;5;1010.44;44.701;37.51605;126.76534;37.7;NaN;;2.19;10.231611;194.9;26 / 43;210008;2021-05-13 12:07:03:619
10.9536;6.238;1.111;8.8165;4.0932;-1.2981;0.3256;1.9528;3.4888;-0.6319;0.8141;-0.7506;5970;27.91;-31.99;1.07;172.88;-24.67;-98.38;5;1010.44;45.556;37.51605;126.76534;37.7;NaN;;2.19;10.231611;194.9;26 / 43;210508;2021-05-13 12:07:04:119
7.1793;6.175;2.1041;7.4522;6.3657;0.3366;-1.1132;-0.0912;1.6792;-0.1912;-1.3043;3.198;10188;27.3;-24.37;-21.82;229.62;-54.36;-65.51;5;1010.43;36.815;37.516026;126.76534;37.28;NaN;;1.93;10.468692;168.4;26 / 43;211008;2021-05-13 12:07:04:619
3.6706;6.1921;0.3003;3.9942;8.9287;0.704;-1.0717;-2.7763;-0.7824;0.1526;-1.1387;2.4064;11641;67.66;3.52;-7.15;222.37;-53.64;-61.04;5;1010.42;37.27;37.516026;126.76534;37.28;NaN;;1.93;10.468692;168.4;26 / 43;211508;2021-05-13 12:07:05:119
10.599;4.7737;2.5123;9.0641;1.8741;3.2403;1.5286;2.4638;-0.7212;1.628;-0.3751;-4.7329;22790;30.58;-22.9;-20.2;227.45;-11.02;-70.33;5;1010.43;44.24;37.516006;126.76536;37.44;NaN;;1.56;10.683034;153.4;27 / 43;212008;2021-05-13 12:07:05:619
11.11;4.9845;2.1715;9.3721;1.5066;2.4626;4.1279;2.5078;0.7849;-0.8168;1.5754;4.3435;12993;0.06;-24.32;-29.28;231.16;-8.84;-75.28;5;1010.43;45.303;37.516006;126.76536;37.44;NaN;;1.56;10.683034;153.4;27 / 43;212508;2021-05-13 12:07:06:119
12.3388;6.5764;1.3714;6.1689;7.6;-0.5965;-1.0673;-1.7707;0.9231;-1.1198;4.463;3.8124;5972;58.1;-7.61;1.33;166.14;-62.44;-102.23;5;1010.43;47.989;37.516;126.765366;37.33;NaN;;1.3;11.058637;132.9;27 / 43;213007;2021-05-13 12:07:06:618
6.9134;5.9461;2.9353;8.5948;3.767;2.8476;1.761;1.1874;-0.1425;-0.629;-2.7947;-2.6701;8332;27.81;-20.99;-12.27;215.66;-22.59;-71.67;5;1010.44;46.184;37.516;126.765366;37.33;NaN;;1.3;11.058637;132.9;27 / 43;213508;2021-05-13 12:07:07:119
7.9281;5.2504;0.6432;6.8741;6.1471;3.3363;3.072;-0.8853;-2.0644;2.0136;0.6961;-0.9795;10576;37.02;-15.22;16.33;182.73;-38.82;-64.11;5;1010.44;48.089;37.516;126.76538;37.33;NaN;;1.22;11.01516;89.2;25 / 43;214008;2021-05-13 12:07:07:619
9.1577;5.0724;2.2612;8.2121;5.0268;1.861;2.4031;-0.2743;0.5402;0.162;-0.491;-3.3966;7939;31.18;-23.03;10.71;173.94;-30.84;-77.23;5;1010.44;42.386;37.516;126.76538;37.33;NaN;;1.22;11.01516;89.2;25 / 43;214508;2021-05-13 12:07:08:119
4.7253;0.1001;1.0206;6.4707;6.625;3.2264;-1.0034;9.7581;-2.0241;-0.0084;4.1435;-1.4958;8499;25.25;-79.2;2.6;181.87;-52.94;-78.12;5;1010.45;39.859;37.516006;126.76539;36.86;NaN;;0.5;10.84059;83.2;24 / 43;215008;2021-05-13 12:07:08:619
5.5196;5.3688;1.9699;5.7373;6.8706;-4.0061;0.6352;-1.7623;6.2933;0.0424;7.323;2.111;10339;8.34;-29.26;-17.45;199.72;-45.23;-118.34;5;1010.44;61.757;37.516006;126.76539;36.86;NaN;;0.5;10.84059;83.2;24 / 43;215508;2021-05-13 12:07:09:119
11.5545;2.8241;2.2375;7.5449;6.1197;1.3395;1.5499;-1.5005;-0.9247;1.7074;-1.5729;4.8865;5562;-1.51;-13.46;33.84;110.49;-38.61;-79.93;5;1010.44;50.836;37.516006;126.76539;36.86;NaN;;0.5;10.84059;83.2;25 / 43;216007;2021-05-13 12:07:09:618
10.2431;5.8968;0.4563;6.3728;7.2714;1.6385;-2.6533;-2.4071;-2.1855;-1.9565;-1.7176;2.5083;5447;0.75;-9.54;21.11;119.37;-47.86;-75.58;5;1010.44;59.439;37.516006;126.76539;36.86;NaN;;0.5;10.84059;83.2;25 / 43;216508;2021-05-13 12:07:10:119
8.1984;5.3407;1.433;6.9326;6.5954;2.1473;1.8088;-1.1896;-0.8855;-2.186;-1.6414;-1.7655;6258;22.53;-26.35;26.16;151.15;-31.94;-77.39;5;1010.44;51.27;37.516006;126.76541;37.7;NaN;;0.48;11.038853;104.1;26 / 43;217008;2021-05-13 12:07:10:619
9.1895;4.9297;1.9001;8.7843;4.1512;-1.3315;0.5428;1.6167;3.4513;0.8777;2.2583;-1.2195;4626;12.56;-37.08;-1.78;180.21;-29.16;-98.13;5;1010.44;52.862;37.516006;126.76541;37.7;NaN;;0.48;11.038853;104.1;26 / 43;217508;2021-05-13 12:07:11:119
12.7403;4.6638;2.5496;7.2882;4.7768;4.4983;0.5316;0.7204;-3.6153;-1.1758;0.7874;2.1372;6747;7.65;-32.68;2.28;188.86;-49.09;-45.3;5;1010.45;42.599;37.51601;126.76542;38.06;NaN;;0.89;10.992239;93.2;26 / 43;218008;2021-05-13 12:07:11:619
11.3694;2.8956;2.1123;8.5115;3.0396;3.8061;0.4655;2.8982;-2.1471;-4.7682;0.4035;2.8606;40953;6.33;-14.47;-37.68;254.64;-18.06;-65.91;5;1010.45;45.374;37.51601;126.76542;38.06;NaN;;0.89;10.992239;93.2;26 / 43;218508;2021-05-13 12:07:12:119
7.6814;5.5584;3.1605;3.6191;9.022;1.2944;-0.6019;-5.9964;0.5825;-0.5216;0.3705;1.5843;20495;27.68;2.78;-23.07;242.83;-66.92;-70.32;5;1010.44;58.721;37.51601;126.76543;38;NaN;;0.44;11.058519;87;26 / 43;219008;2021-05-13 12:07:12:619
7.0927;4.2248;1.4737;7.2291;6.6182;-0.3309;3.449;-4.0639;2.9124;3.3223;0.8612;-3.8755;7506;44.7;-12.89;-1.25;212.9;-10.67;-73.94;5;1010.44;52.22;37.51601;126.76543;38;NaN;;0.44;11.058519;87;26 / 43;219508;2021-05-13 12:07:13:119
12.5168;5.3137;2.8258;8.0612;5.4515;-1.2119;6.9057;-0.2215;3.9914;-1.9175;-3.7109;-0.6969;4325;28.21;-29.27;7.1;184.31;-52.85;-69.91;5;1010.44;60.847;37.516006;126.765434;37.42;NaN;;0.89;11.112779;136.1;26 / 43;220008;2021-05-13 12:07:13:619
6.6287;5.9735;1.0928;6.1833;6.1929;4.4255;-0.5665;0.2903;-3.6193;-1.0159;-1.5975;2.0173;29455.002;15.09;-31.39;-23.2;229.67;-39.16;-54.41;5;1010.45;36.974;37.516006;126.765434;37.42;NaN;;0.89;11.112779;136.1;26 / 43;220508;2021-05-13 12:07:14:119
5.946;6.314;0.0891;6.0444;7.4352;2.0865;-0.5038;-1.2783;-1.9405;0.0737;0.4035;1.9908;7166;46.61;-24.86;-0.42;190.45;-50.3;-78.37;5;1010.44;53.931;37.516006;126.765434;37.42;NaN;;0.89;11.112779;136.1;26 / 43;221008;2021-05-13 12:07:14:619
4.8338;5.2045;0.918;6.5096;7.1839;1.4789;-0.9269;-1.8219;0.2068;1.0339;1.6269;-1.161;6888;51.94;-28.24;2.9;187.97;-38.4;-78.36;5;1010.44;53.137;37.516006;126.765434;37.42;NaN;;0.89;11.112779;136.1;26 / 43;221509;2021-05-13 12:07:15:120
7.7546;7.4313;1.3115;8.7178;4.3141;1.2485;-2.9797;1.5535;0.0776;-0.734;-1.3717;-0.0258;5801;24.63;-45.61;-14.06;203.62;-27.76;-70.24;5;1010.44;46.104;37.516006;126.765434;37.42;NaN;;0.89;11.112779;136.1;26 / 43;222008;2021-05-13 12:07:15:619
5.9313;6.2941;1.7879;6.595;7.1502;1.2457;0.2953;-1.0849;0.7998;1.1446;-0.5368;0.369;7452;51.08;-25.13;-15.95;206.07;-46.81;-79.3;5;1010.45;51.692;37.516006;126.765434;37.42;NaN;;0.89;11.112779;136.1;26 / 43;222508;2021-05-13 12:07:16:119
9.4136;5.533;2.6147;8.4275;4.7343;1.6536;0.9066;0.7624;0.8058;-0.2133;-0.0604;-1.3647;7296;27.42;-37.93;-14.65;207.83;-29.8;-71.33;5;1010.45;38.345;37.516014;126.765434;38.63;NaN;;0.4;10.917488;32.8;27 / 43;223008;2021-05-13 12:07:16:619
9.404;5.8195;2.3474;7.0366;6.6816;1.4189;-0.7132;-0.4557;-0.9234;-0.6943;-1.1233;1.9431;6868;34.25;-36.81;-10.35;198.83;-42.95;-78.6;5;1010.45;34.446;37.516014;126.765434;38.63;NaN;;0.4;10.917488;32.8;27 / 43;223508;2021-05-13 12:07:17:119
6.3912;5.9841;0.2993;4.633;8.4175;1.9627;2.1118;-2.9338;-1.4915;0.1899;-1.4785;-1.4114;7040;72.25;-6.37;-0.23;203.86;-40.98;-72.29;5;1010.46;33.771;37.516014;126.765434;38.63;NaN;;0.4;10.917488;32.8;26 / 43;224008;2021-05-13 12:07:17:619
15.3411;3.4083;3.3915;9.5066;1.9615;-1.3954;0.9367;2.8352;3.664;-1.7961;4.7817;0.9515;4430;3.26;-14.18;-38.13;247.47;-11.54;-98.35;5;1010.45;52.488;37.516014;126.765434;38.63;NaN;;0.4;10.917488;32.8;26 / 43;224508;2021-05-13 12:07:18:119
6.9915;6.2893;2.6492;6.3699;7.363;1.175;2.2417;-1.0789;1.6814;1.1561;-1.7427;2.6435;10439;22.58;-3.74;-29.38;264.22;-60.01;-54.69;5;1010.45;44.306;37.516014;126.765434;38.63;NaN;;0.4;10.917488;32.8;27 / 43;225008;2021-05-13 12:07:18:619
5.2787;4.0591;7.4292;5.5943;5.0815;6.2491;0.2475;-0.6996;1.8111;-0.1509;3.5427;3.4111;47466;38.58;-11.59;-22.93;242.72;-43.19;-54.5;5;1010.85;63.146;37.516014;126.765434;38.63;NaN;;0.4;10.917488;32.8;27 / 43;225508;2021-05-13 12:07:19:119
1.0958;2.2379;7.8204;1.6131;3.1004;9.1627;-0.8625;-0.7535;-0.779;0.4983;0.3336;0.8718;65535;40.55;-27.02;-21.2;244.15;-18.43;-9.98;5;1010.48;55.77;37.516014;126.76543;37.97;NaN;;0;10.735889;;28 / 43;226008;2021-05-13 12:07:19:619
1.7608;12.6562;3.0845;3.2837;7.9728;4.6714;-1.0308;4.8411;-1.5826;-0.5951;0.6188;1.4618;10721;-1.72;-46.71;8.1;168.89;-54.39;-35.1;5;1010.42;65.243;37.516014;126.76543;37.97;NaN;;0;10.735889;;28 / 43;226508;2021-05-13 12:07:20:119
4.3376;5.404;5.3291;4.9521;5.0731;6.7758;0.2009;0.053;-1.6959;-0.5586;0.0312;-0.4507;26614;-12;-41.22;-9.4;171.33;-32.77;-37.4;5;1010.26;51.063;37.516014;126.76543;37.97;NaN;;0;10.735889;;28 / 43;227008;2021-05-13 12:07:20:619
4.906;4.1009;8.5212;3.3563;4.5009;8.0404;1.476;-0.1749;-0.1041;-0.5735;7.00E-04;-0.1083;46462;-0.14;-39.07;-12.96;191.16;-31.82;-24.08;5;1010.34;30.513;37.516014;126.76543;37.97;NaN;;0;10.735889;;28 / 43;227508;2021-05-13 12:07:21:119
1.9531;4.1163;7.2157;2.7606;3.5022;8.7341;-0.6035;0.4178;-0.7309;-0.0136;0.6671;-0.5229;65535;14.16;-31.53;-29.16;229.96;-24.85;-21.33;5;1010.33;29.087;37.516014;126.76543;37.97;NaN;;0;10.735889;;27 / 43;228008;2021-05-13 12:07:21:619
3.4174;1.9094;7.9087;1.8005;4.1358;8.7077;0.2962;-2.2541;0.5185;0.4181;-1.0098;-1.1849;65535;24.72;-25.44;-29.71;247.89;-24.94;-11.68;5;1010.33;38.659;37.516014;126.76543;37.97;NaN;;0;10.735889;;27 / 43;228508;2021-05-13 12:07:22:119
-0.5345;5.4673;6.7862;0.3298;5.0147;8.4211;0.1406;1.726;0.6713;0.9171;-0.4037;-0.5881;65535;41.68;-12.8;-30.43;269.22;-26.46;-6.9;5;1010.4;35.249;37.516014;126.76543;37.97;NaN;;0;10.735889;;29 / 43;229009;2021-05-13 12:07:22:620
4.7777;2.7738;10.2357;2.4105;1.3179;9.414;2.9112;1.8751;1.9796;0.0206;-0.3967;-1.9671;65535;16.21;-27.38;-33.58;236.41;-18.53;-16.94;5;1010.41;33.045;37.516014;126.76543;37.97;NaN;;0;10.735889;;29 / 43;229508;2021-05-13 12:07:23:119
3.4225;3.5109;6.2804;3.1279;3.8736;8.4488;0.1312;-1.8816;0.0514;0.1622;-0.2879;-0.7031;65535;30.15;-13.79;-32.15;262.56;-23.27;-20.32;5;1010.4;35.191;37.51601;126.76542;38.3;NaN;;0;10.453735;;29 / 43;230008;2021-05-13 12:07:23:619
-2.6096;6.8447;7.3758;-0.5654;6.0468;7.6998;2.7891;0.9496;0.3097;-0.7047;2.5135;-1.7559;65535;47.56;5.16;-30.54;298.89;-38.07;4.2;5;1010.4;55.012;37.51601;126.76542;38.3;NaN;;0;10.453735;;29 / 43;230509;2021-05-13 12:07:24:120
-2.1856;6.8464;8.4333;-1.5246;5.5938;7.9092;-0.5894;0.7629;0.146;0.0798;-0.625;-0.5736;19026;44.58;15.88;-34.51;319.74;-36.85;15.43;5;1010.39;33.346;37.51601;126.76542;38.3;NaN;;0;10.453735;;29 / 43;231008;2021-05-13 12:07:24:619
-1.2421;5.7681;4.7247;-1.5581;6.2264;7.4145;1.0549;-0.9987;-1.6009;-0.4508;-0.2727;-0.468;12326;33.15;28.45;-55.38;340.76;-39.41;11.87;5;1010.39;36.233;37.51601;126.76542;38.3;NaN;;0;10.453735;;29 / 43;231508;2021-05-13 12:07:25:119
2.3346;3.8897;7.7639;0.6012;5.7337;7.9331;1.1134;-1.7987;0.6262;0.2279;0.2551;0.5921;4228;63.19;38.01;-57.91;314.97;-35.57;-1.04;5;1010.4;39.926;37.51601;126.76542;38.3;NaN;;0;10.453735;;29 / 43;232008;2021-05-13 12:07:25:619
4.8016;3.8808;5.4639;2.7036;5.5857;7.5935;1.5141;-4.1436;3.9812;0.7625;0.1181;0.5833;393;66.06;-17.49;-29.51;260.28;-41.71;-24.12;5;1010.39;40.372;37.51601;126.76542;38.3;NaN;;0;10.453735;;29 / 43;232509;2021-05-13 12:07:26:120
2.6467;6.3561;7.9449;3.8916;5.211;7.3397;-0.0954;1.0645;-1.0868;-0.099;-0.3822;-0.4744;413;51.08;-15.53;-34.7;260.92;-32.1;-27.93;5;1010.39;39.329;37.51601;126.76542;38.3;NaN;;0;10.453735;;29 / 43;233008;2021-05-13 12:07:26:619
1.0038;4.9465;7.3498;1.2231;5.5439;7.9962;1.6823;-0.1636;-0.6548;-0.1684;0.7094;-0.5636;824;37.81;-5.3;-28.52;281.89;-34.42;-8.7;5;1010.4;41.714;37.51601;126.76542;38.3;NaN;;0;10.453735;;29 / 43;233508;2021-05-13 12:07:27:119
0.2372;6.4067;8.7782;0.406;5.7738;7.9164;-0.4615;0.784;0.0474;0.1937;0.3592;0.2886;1016;30.39;-2.18;-35.1;298.11;-35.28;-4.06;5;1010.39;42.432;37.516003;126.76542;38.57;NaN;;0.84;11.273686;147.6;29 / 43;234008;2021-05-13 12:07:27:619
-0.8808;6.4953;7.0689;0.1202;6.7208;7.1405;-1.9834;0.2235;-0.9908;-0.6397;1.6571;0.88;602;36;-10.49;-23.28;282.5;-43.26;-0.96;5;1010.37;43.7;37.516003;126.76542;38.57;NaN;;0.84;11.273686;147.6;29 / 43;234508;2021-05-13 12:07:28:119
-0.4006;5.2651;7.3991;0.1006;5.5255;8.1012;-0.1941;-0.7712;-0.2521;-0.5018;0.8778;1.8684;851;24.39;-28.72;-18.06;240.63;-35.31;-3.19;5;1010.38;43.118;37.515995;126.76543;38.34;NaN;;0.89;11.81906;148;29 / 43;235008;2021-05-13 12:07:28:619
0.4566;4.2651;8.693;1.1203;4.0993;8.838;-0.3873;0.3896;-0.0303;-0.3446;-0.0913;0.2536;851;5.94;-34.66;-21.77;200.77;-24.71;-7.22;5;1010.39;43.858;37.515995;126.76543;38.34;NaN;;0.89;11.81906;148;29 / 43;235508;2021-05-13 12:07:29:119
2.1478;3.5575;9.7912;2.407;3.3024;8.9146;-0.4208;0.4889;1.7614;0.693;-0.0307;0.0246;694;-4.07;-32.33;-21.14;182.76;-19.04;-13.79;5;1010.39;46.078;37.51599;126.76544;38.28;NaN;;0.75;12.248912;128.8;26 / 43;236008;2021-05-13 12:07:29:619
3.2353;4.8414;7.0952;2.6573;3.7722;8.6533;1.2354;0.6475;-1.6787;-0.4213;-0.4264;0.0168;851;-0.6;-24.85;-25.02;200.11;-23.19;-13.53;5;1010.39;43.074;37.51599;126.76544;38.28;NaN;;0.75;12.248912;128.8;26 / 43;236508;2021-05-13 12:07:30:119
2.5554;3.5547;7.7016;3.4179;4.6324;7.9391;0.7489;0.0357;0.184;0.4073;1.0962;-0.1971;691;-1.11;-20.56;-33.52;229.46;-20.22;-18.58;5;1010.4;42.778;37.51599;126.76544;38.28;NaN;;0.75;12.248912;128.8;24 / 43;237007;2021-05-13 12:07:30:618
0.3563;4.0047;9.1273;0.824;4.5532;8.6463;0.2252;0.9606;0.3962;-0.6718;-0.8834;-1.1557;381;25.09;-2.76;-42.67;299.09;-27.67;-5.44;5;1010.36;44.055;37.51599;126.76544;38.28;NaN;;0.75;12.248912;128.8;24 / 43;237508;2021-05-13 12:07:31:119
1.1253;4.1122;6.2595;1.1753;3.0228;9.2548;4.1036;1.4619;2.4985;1.5196;0.3595;-0.0124;451;32.68;11.5;-37.52;297.34;-16.1;-10.23;5;1010.39;43.403;37.515987;126.76545;38.19;NaN;;0.7;13.255849;129.4;23 / 43;238008;2021-05-13 12:07:31:619
2.4452;2.1345;11.8636;-0.2901;3.0318;9.3217;0.0208;-0.6687;0.5704;0.2116;-0.0155;-0.6433;422;41.38;10.41;-31.65;296.34;-18.01;1.78;5;1010.38;43.993;37.515987;126.76545;38.19;NaN;;0.7;13.255849;129.4;23 / 43;238508;2021-05-13 12:07:32:119
-1.6398;2.5678;9.0989;-0.4003;4.6136;8.6444;-3.2655;-3.9452;1.3481;0.9252;-1.4928;-1.0962;455;5.1;21.88;-47.13;356.12;-28.06;2.65;5;1010.38;45.468;37.51598;126.76545;38.51;NaN;;0.97;13.687439;136.5;23 / 43;239008;2021-05-13 12:07:32:619
-1.0652;6.4587;6.9532;-0.413;5.8123;7.8878;-0.8509;0.2593;-0.616;-0.0389;-1.0183;-0.8821;325;-0.83;9.82;-50.36;5.49;-36.35;3;5;1010.38;42.21;37.51598;126.76545;38.51;NaN;;0.97;13.687439;136.5;23 / 43;239508;2021-05-13 12:07:33:119
1.8484;4.4636;9.3627;1.6076;4.1572;8.7352;-0.1342;0.5525;1.1798;-0.465;-0.7365;-0.0071;385;-2.53;15.06;-41.8;6.14;-32.87;0.33;5;1010.38;44.022;37.516037;126.76533;37.8;NaN;;0.66;14.803293;297.2;18 / 43;240008;2021-05-13 12:07:33:619
1.4976;4.4;7.8943;-0.0529;5.2251;8.2985;-0.4767;-2.5608;0.7852;0.4761;2.4327;2.6173;434;20.32;-5.06;-38.83;310.07;-32.2;0.37;5;1010.38;52.866;37.516037;126.76533;37.8;NaN;;0.66;14.803293;297.2;18 / 43;240508;2021-05-13 12:07:34:119
-0.5789;4.5372;8.7046;-0.6834;4.9906;8.4141;0.1217;-0.4987;0.652;0.2993;-0.4495;-0.9165;531;19.42;-3.11;-39.59;317.85;-30.03;3.81;5;1010.38;44.272;37.516037;126.76532;37.79;NaN;;0.62;15.93892;297.2;20 / 43;241008;2021-05-13 12:07:34:619
-0.8424;5.6692;7.7947;-0.4451;5.5287;8.0874;-0.203;0.2526;-0.2884;0.0375;-0.3889;-0.4858;531;16.94;3.21;-43.11;331.79;-34.05;3.27;5;1010.38;42.96;37.516037;126.76532;37.79;NaN;;0.62;15.93892;297.2;20 / 43;241507;2021-05-13 12:07:35:118
-0.1217;6.5474;7.1972;-1.0884;5.9518;7.7176;0.9759;0.6348;-0.1113;-0.2429;-0.0176;-0.2683;600;20.87;3.54;-39.2;335.07;-36.52;4.66;5;1010.39;42.51;37.516037;126.76533;37.91;NaN;;0;15.915757;;20 / 43;242008;2021-05-13 12:07:35:619
-1.8116;6.2243;7.7646;-1.105;6.0797;7.6149;-0.3017;-0.4492;0.3499;0.1112;-0.0652;-0.5523;631;25.16;7.95;-39.88;336.22;-38.27;7;5;1010.39;42.745;37.516037;126.76533;37.91;NaN;;0;15.915757;;20 / 43;242508;2021-05-13 12:07:36:119
-0.5338;5.1857;9.0475;-1.1558;6.3424;7.3898;0.6495;0.2237;-0.8309;-0.3244;0.8637;0.5336;717;28.03;4.7;-40.48;328.22;-37.91;11.47;5;1010.38;42.559;37.516037;126.76533;37.91;NaN;;0;15.915757;;3 / 43;243008;2021-05-13 12:07:36:619
-1.853;5.9013;8.9901;1.3535;5.9673;7.6636;-0.5366;0.3946;-0.8575;-0.1471;0.6791;0.9451;433;28.19;-13.24;-32.93;289.86;-36.34;2.08;5;1010.38;42.665;37.516037;126.76533;37.91;NaN;;0;15.915757;;3 / 43;243508;2021-05-13 12:07:37:119
0.8176;6.8441;6.8006;0.6623;6.2523;7.526;-0.0928;0.0567;-0.1691;-0.1871;0.2513;0.5238;466;19.85;-29.34;-16.76;245.44;-35.79;-5.01;5;1010.38;42.291;37.51604;126.76532;38.48;NaN;;0;15.269531;;7 / 42;244008;2021-05-13 12:07:37:619
2.1735;6.0142;8.0976;1.5467;6.2128;7.4283;0.8123;-0.0019;0.1214;0.3197;0.207;0.1203;421;9.52;-11.15;-35.47;297.56;-40.52;-8.5;5;1010.38;42.349;37.51604;126.76532;38.48;NaN;;0;15.269531;;7 / 42;244508;2021-05-13 12:07:38:119
1.6656;5.815;8.9822;1.4843;6.8254;6.8834;-0.087;-1.0798;1.5405;0.5794;-0.2603;-0.0701;415;19.19;-3.2;-39.05;310.41;-45.27;-11.36;5;1010.38;44.593;37.51604;126.76532;38.48;NaN;;0;15.269531;;11 / 42;245008;2021-05-13 12:07:38:619
3.5409;7.0203;4.6317;1.6439;6.6751;6.9936;0.7069;1.097;1.9297;0.3261;-0.1148;-0.0973;377;22.44;-1.26;-45.52;314.16;-45.86;-10.25;5;1010.38;42.547;37.51604;126.76532;38.48;NaN;;0;15.269531;;11 / 42;245508;2021-05-13 12:07:39:119
3.0249;7.2657;5.9974;2.6835;7.0405;6.2769;0.9196;0.4982;0.052;0.3221;-0.2141;-0.1105;600;18.64;-6.78;-49.87;307.25;-46.25;-15.67;5;1010.38;45.262;37.51604;126.76532;38.48;NaN;;0;15.269531;;15 / 42;246008;2021-05-13 12:07:39:619
2.7734;6.8417;8.1674;2.1216;8.1566;5.0139;0.3229;0.1929;-0.3529;-0.1048;-0.6047;-0.3721;374;11.74;-9.32;-47.69;294.42;-54.6;-26.05;5;1010.37;45.218;37.51604;126.76532;38.48;NaN;;0;15.269531;;15 / 42;246508;2021-05-13 12:07:40:119
1.9859;8.7358;5.1309;0.2289;8.4384;4.9911;1.0113;0.1797;0.1379;0.339;-0.5808;-0.3679;320;8.31;-3.35;-48.75;345.74;-59.37;-2.63;5;1010.37;42.897;37.51605;126.76531;38.97;NaN;;0;13.226036;;18 / 42;247008;2021-05-13 12:07:40:619
4.6305;6.8314;8.7074;3.6113;6.7228;6.1589;0.3327;0.393;3.1162;0.3305;0.5436;0.2296;446;8.52;4.78;-50.94;332.42;-60.44;-13.49;5;1010.39;46.712;37.51605;126.76531;38.97;NaN;;0;13.226036;;18 / 42;247509;2021-05-13 12:07:41:120
4.3267;6.1743;6.1702;3.6249;6.8196;6.0434;-0.6393;-0.1061;-0.5242;-0.0019;-0.0348;0.2224;456;12.43;4.59;-44.84;308.01;-44.06;-30.96;5;1010.39;45.978;37.51605;126.76531;38.97;NaN;;0;13.226036;;19 / 42;248008;2021-05-13 12:07:41:619
3.671;6.378;6.3735;3.9369;6.291;6.4104;-1.1485;0.3253;-0.7115;0.1276;0.1681;0.3594;456;14.15;6.54;-48.56;306.63;-40.61;-30.89;5;1010.4;49.8;37.51605;126.76531;38.97;NaN;;0;13.226036;;19 / 42;248508;2021-05-13 12:07:42:119
3.7819;5.3951;7.1917;3.9079;6.0301;6.6736;-0.5001;0.2551;-0.3476;0.0789;0.2292;0.1731;442;20.36;4.74;-42.75;297.79;-37.94;-30.35;5;1010.39;54.176;37.51605;126.76531;38.97;NaN;;0;13.226036;;20 / 42;249008;2021-05-13 12:07:42:619
3.2932;6.3687;6.8208;3.0682;6.204;6.9475;0.1533;0.1876;-0.0458;-0.0104;0.0118;-0.3948;386;18.75;6.96;-49.5;304.4;-37.51;-27.34;5;1010.4;47.926;37.51605;126.76531;38.97;NaN;;0;13.226036;;20 / 42;249508;2021-05-13 12:07:43:119
3.0211;5.8674;6.7482;2.0415;6.5262;7.0293;1.0383;-0.4925;-0.0976;-0.083;-0.6149;-0.7266;346;14.79;6.65;-51.52;320.8;-41.37;-16.23;5;1010.39;53.375;37.51605;126.76531;38.97;NaN;;0;13.226036;;17 / 42;250008;2021-05-13 12:07:43:619
1.3888;6.3246;7.1349;2.2546;6.6128;6.8818;-0.3118;-0.2546;0.1779;-0.2273;0.0577;-0.1967;444;2.17;10.08;-53.03;335.1;-41.95;-18.64;5;1010.39;53.313;37.51605;126.76531;38.97;NaN;;0;13.226036;;17 / 42;250508;2021-05-13 12:07:44:119
1.2338;6.4094;8.0062;2.3836;6.4784;6.9656;-0.4412;0.3913;0.1763;-0.3397;-0.3635;-0.4132;536;-9.02;11.72;-50.14;349.69;-41.35;-18.89;5;1010.39;46.113;37.51605;126.76531;38.97;NaN;;0;13.226036;;17 / 42;251007;2021-05-13 12:07:44:618
1.6143;6.6617;6.8834;2.6624;6.4664;6.8751;-1.2797;0.5655;-0.8724;-0.0121;0.4088;0.9219;536;-7.02;9.68;-50.73;345.23;-41.7;-19.92;5;1010.39;48.5;37.51605;126.76531;38.97;NaN;;0;13.226036;;17 / 42;251508;2021-05-13 12:07:45:119
2.3326;6.0258;7.4159;2.1379;6.1218;7.3569;-2.00E-04;-0.2182;0.2952;0.0045;0.2825;0.4356;534;15.5;12.03;-50.85;322.41;-39.54;-18.35;5;1010.39;48.225;37.51605;126.76531;38.97;NaN;;0;13.226036;;15 / 42;252008;2021-05-13 12:07:45:619
3.6501;5.5981;7.6061;2.9112;5.8886;7.2814;0.767;0.142;-0.5206;0.0492;0.0726;0.0948;753;18.86;12.08;-43.95;310.84;-36.63;-19.65;5;1010.39;43.421;37.51605;126.76531;38.97;NaN;;0;13.226036;;15 / 42;252508;2021-05-13 12:07:46:119
